subj,sex,medit,block,trial,word,pic,cond,acc,rt
1,male,meditate,1,1,church,carrot,incong,1,394
1,male,meditate,1,2,car,fork,incong,1,429
1,male,meditate,1,3,cup,cup,cong,1,461
1,male,meditate,1,4,cup,hammer,incong,1,589
1,male,meditate,1,5,anchor,anchor,cong,1,478
1,male,meditate,1,6,dog,dog,cong,1,496
1,male,meditate,1,7,ball,ball,cong,1,484
1,male,meditate,1,8,lemon,stapler,incong,1,397
1,male,meditate,1,9,star,star,cong,1,477
1,male,meditate,1,10,apple,ball,incong,1,370
1,male,meditate,1,11,church,church,cong,1,464
1,male,meditate,1,12,bus,bus,cong,1,467
1,male,meditate,1,13,fork,fork,cong,1,499
1,male,meditate,1,14,spoon,cat,incong,1,367
1,male,meditate,1,15,horse,horse,cong,1,480
1,male,meditate,2,16,shoe,shoe,cong,1,445
1,male,meditate,2,17,hammer,boat,incong,1,414
1,male,meditate,2,18,dog,cake,incong,1,376
1,male,meditate,2,19,orange,orange,cong,1,569
1,male,meditate,2,20,stapler,stapler,cong,1,461
1,male,meditate,2,21,plate,cup,incong,1,562
1,male,meditate,2,22,hammer,hammer,cong,1,502
1,male,meditate,2,23,moon,moon,cong,1,522
1,male,meditate,2,24,tree,tree,cong,1,534
1,male,meditate,2,25,stapler,orange,incong,1,420
1,male,meditate,2,26,cherry,cherry,cong,1,444
1,male,meditate,2,27,anchor,dog,incong,1,432
1,male,meditate,2,28,orange,tree,incong,1,505
1,male,meditate,2,29,horse,plate,incong,1,464
1,male,meditate,2,30,star,hat,incong,1,384
1,male,meditate,1,31,apple,apple,cong,1,467
1,male,meditate,1,32,cake,cake,cong,1,472
1,male,meditate,1,33,lemon,lemon,cong,1,445
1,male,meditate,1,34,moon,moon,cong,1,378
1,male,meditate,1,35,pizza,pizza,cong,1,541
1,male,meditate,1,36,cherry,apple,incong,1,363
1,male,meditate,1,37,hat,hat,cong,1,465
1,male,meditate,1,38,bus,drill,incong,1,436
1,male,meditate,1,39,spoon,spoon,cong,1,465
1,male,meditate,1,40,car,car,cong,1,455
1,male,meditate,1,41,hat,lemon,incong,1,471
1,male,meditate,1,42,carrot,carrot,cong,1,510
1,male,meditate,1,43,drill,drill,cong,1,485
1,male,meditate,1,44,drill,scissors,incong,1,359
1,male,meditate,1,45,plate,plate,cong,1,474
1,male,meditate,2,46,cat,cat,cong,1,444
1,male,meditate,2,47,scissors,scissors,cong,1,464
1,male,meditate,2,48,pizza,church,incong,1,440
1,male,meditate,2,49,scissors,pizza,incong,1,407
1,male,meditate,2,50,ball,bus,incong,1,401
1,male,meditate,2,51,tree,shoe,incong,1,407
1,male,meditate,2,52,boat,boat,cong,1,472
1,male,meditate,2,53,burger,horse,incong,1,376
1,male,meditate,2,54,fork,anchor,incong,1,431
1,male,meditate,2,55,burger,burger,cong,1,555
1,male,meditate,2,56,cake,burger,incong,1,443
1,male,meditate,2,57,shoe,car,incong,1,370
1,male,meditate,2,58,boat,cherry,incong,1,424
1,male,meditate,2,59,carrot,star,incong,1,438
1,male,meditate,2,60,cat,spoon,incong,1,508
2,male,meditate,1,1,cake,cake,cong,1,476
2,male,meditate,1,2,horse,fork,incong,1,559
2,male,meditate,1,3,anchor,anchor,cong,1,535
2,male,meditate,1,4,scissors,scissors,cong,1,558
2,male,meditate,1,5,anchor,lemon,incong,1,653
2,male,meditate,1,6,boat,horse,incong,1,592
2,male,meditate,1,7,tree,cherry,incong,1,570
2,male,meditate,1,8,moon,moon,cong,1,479
2,male,meditate,1,9,fork,scissors,incong,1,519
2,male,meditate,1,10,lemon,moon,incong,1,492
2,male,meditate,1,11,fork,fork,cong,1,491
2,male,meditate,1,12,drill,drill,cong,1,515
2,male,meditate,1,13,lemon,lemon,cong,1,473
2,male,meditate,1,14,pizza,shoe,incong,1,529
2,male,meditate,1,15,boat,boat,cong,1,472
2,male,meditate,2,16,carrot,star,incong,1,474
2,male,meditate,2,17,tree,tree,cong,1,544
2,male,meditate,2,18,burger,burger,cong,0,463
2,male,meditate,2,19,dog,dog,cong,1,482
2,male,meditate,2,20,cup,hat,incong,1,531
2,male,meditate,2,21,hammer,hammer,cong,1,471
2,male,meditate,2,22,cherry,anchor,incong,1,624
2,male,meditate,2,23,moon,hammer,incong,1,537
2,male,meditate,2,24,spoon,spoon,cong,0,493
2,male,meditate,2,25,cake,spoon,incong,1,549
2,male,meditate,2,26,spoon,church,incong,1,497
2,male,meditate,2,27,star,star,cong,1,501
2,male,meditate,2,28,shoe,shoe,cong,1,474
2,male,meditate,2,29,church,dog,incong,1,487
2,male,meditate,2,30,cat,cat,cong,1,484
2,male,meditate,1,31,car,car,cong,1,464
2,male,meditate,1,32,hat,hat,cong,1,520
2,male,meditate,1,33,shoe,ball,incong,1,611
2,male,meditate,1,34,cat,carrot,incong,1,473
2,male,meditate,1,35,star,orange,incong,1,492
2,male,meditate,1,36,plate,plate,cong,1,472
2,male,meditate,1,37,cup,cup,cong,1,473
2,male,meditate,1,38,stapler,stapler,cong,1,532
2,male,meditate,1,39,car,stapler,incong,1,442
2,male,meditate,1,40,bus,burger,incong,1,543
2,male,meditate,1,41,burger,tree,incong,1,547
2,male,meditate,1,42,orange,bus,incong,1,508
2,male,meditate,1,43,ball,boat,incong,1,579
2,male,meditate,1,44,apple,apple,cong,1,456
2,male,meditate,1,45,hat,cake,incong,0,554
2,male,meditate,2,46,hammer,drill,incong,1,540
2,male,meditate,2,47,bus,bus,cong,1,491
2,male,meditate,2,48,pizza,pizza,cong,1,491
2,male,meditate,2,49,church,church,cong,1,467
2,male,meditate,2,50,dog,cup,incong,1,497
2,male,meditate,2,51,orange,orange,cong,1,515
2,male,meditate,2,52,horse,horse,cong,1,473
2,male,meditate,2,53,cherry,cherry,cong,1,487
2,male,meditate,2,54,apple,pizza,incong,1,465
2,male,meditate,2,55,scissors,cat,incong,1,529
2,male,meditate,2,56,plate,apple,incong,1,468
2,male,meditate,2,57,drill,car,incong,1,463
2,male,meditate,2,58,ball,ball,cong,1,495
2,male,meditate,2,59,carrot,carrot,cong,1,566
2,male,meditate,2,60,stapler,plate,incong,1,462
3,male,meditate,1,1,stapler,stapler,cong,1,559
3,male,meditate,1,2,pizza,star,incong,1,504
3,male,meditate,1,3,moon,moon,cong,1,580
3,male,meditate,1,4,bus,stapler,incong,1,486
3,male,meditate,1,5,anchor,orange,incong,1,424
3,male,meditate,1,6,cake,spoon,incong,1,433
3,male,meditate,1,7,burger,boat,incong,1,427
3,male,meditate,1,8,shoe,shoe,cong,1,522
3,male,meditate,1,9,orange,car,incong,1,579
3,male,meditate,1,10,tree,cat,incong,0,580
3,male,meditate,1,11,car,shoe,incong,1,468
3,male,meditate,1,12,scissors,scissors,cong,1,498
3,male,meditate,1,13,cherry,cherry,cong,1,520
3,male,meditate,1,14,hat,hammer,incong,1,468
3,male,meditate,1,15,plate,lemon,incong,0,433
3,male,meditate,2,16,plate,plate,cong,1,514
3,male,meditate,2,17,lemon,lemon,cong,1,535
3,male,meditate,2,18,lemon,apple,incong,1,623
3,male,meditate,2,19,ball,ball,cong,0,463
3,male,meditate,2,20,anchor,anchor,cong,1,521
3,male,meditate,2,21,cup,plate,incong,1,437
3,male,meditate,2,22,burger,burger,cong,1,518
3,male,meditate,2,23,pizza,pizza,cong,1,587
3,male,meditate,2,24,spoon,fork,incong,1,587
3,male,meditate,2,25,cup,cup,cong,1,520
3,male,meditate,2,26,tree,tree,cong,1,524
3,male,meditate,2,27,drill,drill,cong,1,482
3,male,meditate,2,28,horse,horse,cong,1,427
3,male,meditate,2,29,stapler,church,incong,1,419
3,male,meditate,2,30,star,star,cong,1,521
3,male,meditate,1,31,spoon,spoon,cong,1,531
3,male,meditate,1,32,car,car,cong,1,497
3,male,meditate,1,33,apple,dog,incong,1,502
3,male,meditate,1,34,boat,cup,incong,1,640
3,male,meditate,1,35,star,drill,incong,1,473
3,male,meditate,1,36,hammer,hammer,cong,1,481
3,male,meditate,1,37,carrot,carrot,cong,0,529
3,male,meditate,1,38,orange,orange,cong,1,534
3,male,meditate,1,39,scissors,scissors,cong,1,515
3,male,meditate,1,40,fork,burger,incong,1,481
3,male,meditate,1,41,ball,ball,cong,1,535
3,male,meditate,1,42,shoe,bus,incong,1,515
3,male,meditate,1,43,dog,pizza,incong,1,449
3,male,meditate,1,44,cherry,tree,incong,1,505
3,male,meditate,1,45,cat,hat,incong,1,523
3,male,meditate,2,46,apple,apple,cong,1,594
3,male,meditate,2,47,hammer,cherry,incong,1,497
3,male,meditate,2,48,moon,carrot,incong,1,462
3,male,meditate,2,49,fork,fork,cong,1,608
3,male,meditate,2,50,boat,boat,cong,1,587
3,male,meditate,2,51,carrot,cake,incong,1,628
3,male,meditate,2,52,bus,bus,cong,1,588
3,male,meditate,2,53,dog,dog,cong,1,542
3,male,meditate,2,54,cat,cat,cong,1,522
3,male,meditate,2,55,church,moon,incong,1,505
3,male,meditate,2,56,cake,cake,cong,1,503
3,male,meditate,2,57,church,church,cong,1,508
3,male,meditate,2,58,horse,horse,cong,1,546
3,male,meditate,2,59,drill,anchor,incong,1,448
3,male,meditate,2,60,hat,hat,cong,1,531
4,male,meditate,1,1,fork,hammer,incong,1,319
4,male,meditate,1,2,church,church,cong,1,555
4,male,meditate,1,3,pizza,pizza,cong,1,587
4,male,meditate,1,4,cup,scissors,incong,0,379
4,male,meditate,1,5,scissors,church,incong,1,466
4,male,meditate,1,6,lemon,cake,incong,1,330
4,male,meditate,1,7,carrot,hat,incong,1,277
4,male,meditate,1,8,spoon,horse,incong,1,331
4,male,meditate,1,9,moon,lemon,incong,1,341
4,male,meditate,1,10,drill,drill,cong,1,585
4,male,meditate,1,11,apple,apple,cong,1,591
4,male,meditate,1,12,boat,boat,cong,1,529
4,male,meditate,1,13,hat,hat,cong,0,507
4,male,meditate,1,14,stapler,moon,incong,1,277
4,male,meditate,1,15,orange,orange,cong,1,473
4,male,meditate,2,16,cat,pizza,incong,1,269
4,male,meditate,2,17,church,tree,incong,1,269
4,male,meditate,2,18,ball,ball,cong,1,525
4,male,meditate,2,19,ball,dog,incong,1,393
4,male,meditate,2,20,tree,tree,cong,1,520
4,male,meditate,2,21,plate,orange,incong,1,329
4,male,meditate,2,22,pizza,cherry,incong,1,304
4,male,meditate,2,23,hammer,plate,incong,1,291
4,male,meditate,2,24,shoe,shoe,cong,1,472
4,male,meditate,2,25,cherry,cherry,cong,1,546
4,male,meditate,2,26,burger,burger,cong,1,525
4,male,meditate,2,27,cherry,carrot,incong,1,268
4,male,meditate,2,28,tree,bus,incong,1,372
4,male,meditate,2,29,cake,ball,incong,1,286
4,male,meditate,2,30,orange,drill,incong,1,295
4,male,meditate,1,31,dog,dog,cong,1,621
4,male,meditate,1,32,anchor,stapler,incong,1,321
4,male,meditate,1,33,bus,apple,incong,0,313
4,male,meditate,1,34,horse,horse,cong,1,537
4,male,meditate,1,35,cat,cat,cong,1,524
4,male,meditate,1,36,cake,cake,cong,0,515
4,male,meditate,1,37,bus,bus,cong,1,490
4,male,meditate,1,38,carrot,carrot,cong,1,597
4,male,meditate,1,39,shoe,burger,incong,0,476
4,male,meditate,1,40,fork,fork,cong,1,508
4,male,meditate,1,41,hammer,hammer,cong,1,507
4,male,meditate,1,42,burger,star,incong,1,438
4,male,meditate,1,43,horse,shoe,incong,1,280
4,male,meditate,1,44,apple,cup,incong,1,298
4,male,meditate,1,45,car,spoon,incong,1,283
4,male,meditate,2,46,lemon,lemon,cong,1,524
4,male,meditate,2,47,plate,plate,cong,1,558
4,male,meditate,2,48,boat,fork,incong,1,304
4,male,meditate,2,49,anchor,anchor,cong,1,551
4,male,meditate,2,50,dog,car,incong,1,319
4,male,meditate,2,51,star,star,cong,1,490
4,male,meditate,2,52,drill,anchor,incong,1,380
4,male,meditate,2,53,hat,cat,incong,1,418
4,male,meditate,2,54,car,car,cong,1,485
4,male,meditate,2,55,scissors,scissors,cong,1,492
4,male,meditate,2,56,moon,moon,cong,1,533
4,male,meditate,2,57,spoon,spoon,cong,1,457
4,male,meditate,2,58,stapler,stapler,cong,1,633
4,male,meditate,2,59,cup,cup,cong,1,531
4,male,meditate,2,60,star,boat,incong,1,459
5,male,meditate,1,1,hat,hat,cong,1,714
5,male,meditate,1,2,church,church,cong,1,587
5,male,meditate,1,3,apple,apple,cong,1,512
5,male,meditate,1,4,pizza,pizza,cong,1,518
5,male,meditate,1,5,orange,lemon,incong,0,272
5,male,meditate,1,6,burger,burger,cong,0,561
5,male,meditate,1,7,hammer,hammer,cong,1,568
5,male,meditate,1,8,car,star,incong,1,363
5,male,meditate,1,9,carrot,carrot,cong,1,529
5,male,meditate,1,10,scissors,scissors,cong,0,628
5,male,meditate,1,11,fork,fork,cong,1,558
5,male,meditate,1,12,lemon,lemon,cong,1,506
5,male,meditate,1,13,stapler,stapler,cong,1,504
5,male,meditate,1,14,shoe,shoe,cong,1,597
5,male,meditate,1,15,tree,tree,cong,1,510
5,male,meditate,2,16,anchor,anchor,cong,1,487
5,male,meditate,2,17,plate,plate,cong,1,543
5,male,meditate,2,18,horse,pizza,incong,1,458
5,male,meditate,2,19,ball,apple,incong,1,290
5,male,meditate,2,20,cat,cat,cong,1,493
5,male,meditate,2,21,star,star,cong,1,707
5,male,meditate,2,22,spoon,spoon,cong,1,517
5,male,meditate,2,23,cup,fork,incong,1,273
5,male,meditate,2,24,shoe,church,incong,1,385
5,male,meditate,2,25,bus,ball,incong,1,293
5,male,meditate,2,26,car,car,cong,1,476
5,male,meditate,2,27,moon,carrot,incong,1,271
5,male,meditate,2,28,tree,dog,incong,1,326
5,male,meditate,2,29,stapler,horse,incong,1,326
5,male,meditate,2,30,moon,moon,cong,1,488
5,male,meditate,1,31,dog,scissors,incong,1,434
5,male,meditate,1,32,bus,bus,cong,1,546
5,male,meditate,1,33,hammer,burger,incong,1,463
5,male,meditate,1,34,church,shoe,incong,1,306
5,male,meditate,1,35,hat,moon,incong,1,328
5,male,meditate,1,36,boat,boat,cong,1,515
5,male,meditate,1,37,boat,cup,incong,1,294
5,male,meditate,1,38,star,drill,incong,1,409
5,male,meditate,1,39,spoon,cat,incong,1,289
5,male,meditate,1,40,cherry,orange,incong,1,413
5,male,meditate,1,41,anchor,hammer,incong,1,359
5,male,meditate,1,42,drill,drill,cong,1,470
5,male,meditate,1,43,apple,cherry,incong,1,282
5,male,meditate,1,44,plate,tree,incong,1,315
5,male,meditate,1,45,orange,orange,cong,1,538
5,male,meditate,2,46,burger,cake,incong,1,404
5,male,meditate,2,47,cake,cake,cong,1,559
5,male,meditate,2,48,scissors,bus,incong,0,307
5,male,meditate,2,49,lemon,stapler,incong,1,283
5,male,meditate,2,50,cup,cup,cong,1,505
5,male,meditate,2,51,horse,horse,cong,1,578
5,male,meditate,2,52,cherry,cherry,cong,1,580
5,male,meditate,2,53,drill,boat,incong,1,410
5,male,meditate,2,54,cat,plate,incong,1,379
5,male,meditate,2,55,fork,spoon,incong,1,382
5,male,meditate,2,56,cake,hat,incong,1,351
5,male,meditate,2,57,carrot,anchor,incong,1,270
5,male,meditate,2,58,pizza,car,incong,1,345
5,male,meditate,2,59,dog,dog,cong,1,521
5,male,meditate,2,60,ball,ball,cong,1,573
6,male,meditate,1,1,dog,dog,cong,1,502
6,male,meditate,1,2,hammer,orange,incong,1,475
6,male,meditate,1,3,stapler,stapler,cong,1,483
6,male,meditate,1,4,spoon,spoon,cong,1,508
6,male,meditate,1,5,tree,hammer,incong,1,603
6,male,meditate,1,6,horse,horse,cong,1,505
6,male,meditate,1,7,dog,tree,incong,1,546
6,male,meditate,1,8,cup,burger,incong,1,531
6,male,meditate,1,9,lemon,spoon,incong,1,633
6,male,meditate,1,10,car,car,cong,0,510
6,male,meditate,1,11,pizza,pizza,cong,1,499
6,male,meditate,1,12,moon,moon,cong,1,488
6,male,meditate,1,13,star,cup,incong,1,630
6,male,meditate,1,14,plate,ball,incong,1,644
6,male,meditate,1,15,hat,hat,cong,1,492
6,male,meditate,2,16,burger,hat,incong,1,568
6,male,meditate,2,17,scissors,car,incong,1,464
6,male,meditate,2,18,plate,plate,cong,1,522
6,male,meditate,2,19,cherry,cherry,cong,1,518
6,male,meditate,2,20,pizza,scissors,incong,1,538
6,male,meditate,2,21,stapler,apple,incong,1,752
6,male,meditate,2,22,orange,horse,incong,1,447
6,male,meditate,2,23,star,star,cong,1,501
6,male,meditate,2,24,hat,drill,incong,1,586
6,male,meditate,2,25,cat,cat,cong,1,528
6,male,meditate,2,26,church,cake,incong,1,614
6,male,meditate,2,27,scissors,scissors,cong,1,528
6,male,meditate,2,28,shoe,stapler,incong,1,686
6,male,meditate,2,29,shoe,shoe,cong,1,511
6,male,meditate,2,30,church,church,cong,1,580
6,male,meditate,1,31,carrot,carrot,cong,1,484
6,male,meditate,1,32,orange,orange,cong,1,476
6,male,meditate,1,33,car,church,incong,1,457
6,male,meditate,1,34,spoon,lemon,incong,1,498
6,male,meditate,1,35,boat,boat,cong,1,585
6,male,meditate,1,36,lemon,lemon,cong,1,577
6,male,meditate,1,37,drill,anchor,incong,1,557
6,male,meditate,1,38,bus,moon,incong,1,604
6,male,meditate,1,39,carrot,bus,incong,1,517
6,male,meditate,1,40,bus,bus,cong,1,524
6,male,meditate,1,41,cherry,fork,incong,1,513
6,male,meditate,1,42,horse,shoe,incong,1,506
6,male,meditate,1,43,burger,burger,cong,1,521
6,male,meditate,1,44,ball,ball,cong,1,568
6,male,meditate,1,45,fork,plate,incong,1,543
6,male,meditate,2,46,anchor,pizza,incong,1,446
6,male,meditate,2,47,cat,star,incong,0,484
6,male,meditate,2,48,fork,fork,cong,1,494
6,male,meditate,2,49,ball,boat,incong,1,560
6,male,meditate,2,50,drill,drill,cong,1,545
6,male,meditate,2,51,cake,cake,cong,1,476
6,male,meditate,2,52,cup,cup,cong,1,533
6,male,meditate,2,53,moon,dog,incong,1,585
6,male,meditate,2,54,hammer,hammer,cong,1,573
6,male,meditate,2,55,apple,cherry,incong,1,443
6,male,meditate,2,56,tree,tree,cong,1,519
6,male,meditate,2,57,boat,cat,incong,1,470
6,male,meditate,2,58,anchor,anchor,cong,1,520
6,male,meditate,2,59,cake,carrot,incong,1,462
6,male,meditate,2,60,apple,apple,cong,1,490
7,male,meditate,1,1,church,church,cong,1,483
7,male,meditate,1,2,boat,shoe,incong,1,533
7,male,meditate,1,3,moon,moon,cong,1,481
7,male,meditate,1,4,star,pizza,incong,1,517
7,male,meditate,1,5,cat,cat,cong,1,463
7,male,meditate,1,6,hat,hat,cong,1,430
7,male,meditate,1,7,car,bus,incong,1,560
7,male,meditate,1,8,bus,boat,incong,1,488
7,male,meditate,1,9,orange,church,incong,1,517
7,male,meditate,1,10,tree,tree,cong,1,488
7,male,meditate,1,11,burger,cup,incong,1,548
7,male,meditate,1,12,cake,cat,incong,1,466
7,male,meditate,1,13,cherry,cherry,cong,1,499
7,male,meditate,1,14,shoe,burger,incong,1,493
7,male,meditate,1,15,cup,cup,cong,1,413
7,male,meditate,2,16,anchor,cherry,incong,0,506
7,male,meditate,2,17,fork,ball,incong,1,586
7,male,meditate,2,18,scissors,star,incong,1,494
7,male,meditate,2,19,apple,apple,cong,1,573
7,male,meditate,2,20,boat,boat,cong,1,511
7,male,meditate,2,21,stapler,tree,incong,1,524
7,male,meditate,2,22,bus,bus,cong,1,477
7,male,meditate,2,23,spoon,anchor,incong,1,662
7,male,meditate,2,24,burger,burger,cong,1,536
7,male,meditate,2,25,carrot,dog,incong,1,512
7,male,meditate,2,26,tree,orange,incong,1,520
7,male,meditate,2,27,car,car,cong,1,498
7,male,meditate,2,28,lemon,lemon,cong,1,417
7,male,meditate,2,29,church,fork,incong,1,525
7,male,meditate,2,30,cake,cake,cong,1,406
7,male,meditate,1,31,fork,fork,cong,1,462
7,male,meditate,1,32,plate,plate,cong,1,401
7,male,meditate,1,33,ball,spoon,incong,1,531
7,male,meditate,1,34,plate,drill,incong,1,582
7,male,meditate,1,35,cat,horse,incong,1,564
7,male,meditate,1,36,orange,orange,cong,1,402
7,male,meditate,1,37,moon,hammer,incong,1,537
7,male,meditate,1,38,ball,ball,cong,1,505
7,male,meditate,1,39,scissors,scissors,cong,1,418
7,male,meditate,1,40,pizza,pizza,cong,1,451
7,male,meditate,1,41,hat,stapler,incong,1,492
7,male,meditate,1,42,anchor,anchor,cong,1,396
7,male,meditate,1,43,cherry,scissors,incong,1,650
7,male,meditate,1,44,lemon,car,incong,1,616
7,male,meditate,1,45,drill,drill,cong,1,424
7,male,meditate,2,46,apple,apple,cong,1,514
7,male,meditate,2,47,dog,dog,cong,1,447
7,male,meditate,2,48,hammer,hammer,cong,1,440
7,male,meditate,2,49,horse,lemon,incong,1,511
7,male,meditate,2,50,hammer,hat,incong,1,510
7,male,meditate,2,51,star,star,cong,1,533
7,male,meditate,2,52,shoe,shoe,cong,1,498
7,male,meditate,2,53,carrot,carrot,cong,1,467
7,male,meditate,2,54,pizza,cake,incong,1,547
7,male,meditate,2,55,cup,carrot,incong,1,647
7,male,meditate,2,56,dog,plate,incong,1,505
7,male,meditate,2,57,spoon,spoon,cong,1,494
7,male,meditate,2,58,stapler,stapler,cong,1,577
7,male,meditate,2,59,horse,horse,cong,1,442
7,male,meditate,2,60,drill,moon,incong,1,596
8,male,meditate,1,1,star,cup,incong,1,477
8,male,meditate,1,2,pizza,orange,incong,1,424
8,male,meditate,1,3,scissors,star,incong,1,379
8,male,meditate,1,4,carrot,carrot,cong,0,348
8,male,meditate,1,5,moon,moon,cong,1,474
8,male,meditate,1,6,anchor,moon,incong,1,360
8,male,meditate,1,7,church,church,cong,1,483
8,male,meditate,1,8,cherry,spoon,incong,1,353
8,male,meditate,1,9,anchor,anchor,cong,1,477
8,male,meditate,1,10,cake,cake,cong,1,516
8,male,meditate,1,11,horse,apple,incong,1,433
8,male,meditate,1,12,apple,apple,cong,1,490
8,male,meditate,1,13,carrot,carrot,cong,1,528
8,male,meditate,1,14,hat,hat,cong,1,479
8,male,meditate,1,15,cake,drill,incong,1,411
8,male,meditate,2,16,drill,drill,cong,1,619
8,male,meditate,2,17,shoe,burger,incong,1,346
8,male,meditate,2,18,car,dog,incong,1,372
8,male,meditate,2,19,burger,burger,cong,1,479
8,male,meditate,2,20,dog,dog,cong,1,534
8,male,meditate,2,21,moon,church,incong,1,443
8,male,meditate,2,22,spoon,spoon,cong,0,479
8,male,meditate,2,23,stapler,stapler,cong,1,513
8,male,meditate,2,24,fork,tree,incong,1,334
8,male,meditate,2,25,dog,lemon,incong,1,369
8,male,meditate,2,26,tree,cherry,incong,1,385
8,male,meditate,2,27,cup,cup,cong,1,476
8,male,meditate,2,28,church,stapler,incong,1,389
8,male,meditate,2,29,burger,cake,incong,1,338
8,male,meditate,2,30,pizza,pizza,cong,1,510
8,male,meditate,1,31,lemon,lemon,cong,1,578
8,male,meditate,1,32,drill,horse,incong,1,380
8,male,meditate,1,33,bus,cat,incong,1,351
8,male,meditate,1,34,stapler,plate,incong,1,356
8,male,meditate,1,35,apple,hammer,incong,1,380
8,male,meditate,1,36,hammer,pizza,incong,1,356
8,male,meditate,1,37,boat,boat,cong,0,392
8,male,meditate,1,38,boat,boat,cong,1,492
8,male,meditate,1,39,bus,bus,cong,1,474
8,male,meditate,1,40,cat,cat,cong,1,479
8,male,meditate,1,41,cup,hat,incong,1,375
8,male,meditate,1,42,cherry,cherry,cong,1,546
8,male,meditate,1,43,star,star,cong,1,589
8,male,meditate,1,44,cat,shoe,incong,1,425
8,male,meditate,1,45,car,car,cong,1,555
8,male,meditate,2,46,plate,ball,incong,1,425
8,male,meditate,2,47,fork,fork,cong,1,557
8,male,meditate,2,48,lemon,bus,incong,1,419
8,male,meditate,2,49,orange,car,incong,1,439
8,male,meditate,2,50,shoe,shoe,cong,1,474
8,male,meditate,2,51,plate,plate,cong,1,500
8,male,meditate,2,52,horse,horse,cong,1,475
8,male,meditate,2,53,hammer,hammer,cong,1,484
8,male,meditate,2,54,tree,tree,cong,1,483
8,male,meditate,2,55,ball,fork,incong,1,409
8,male,meditate,2,56,hat,anchor,incong,1,473
8,male,meditate,2,57,spoon,scissors,incong,1,425
8,male,meditate,2,58,orange,orange,cong,1,478
8,male,meditate,2,59,ball,ball,cong,1,478
8,male,meditate,2,60,scissors,scissors,cong,1,483
9,male,meditate,1,1,burger,burger,cong,1,448
9,male,meditate,1,2,orange,apple,incong,1,625
9,male,meditate,1,3,church,bus,incong,1,527
9,male,meditate,1,4,horse,horse,cong,1,531
9,male,meditate,1,5,cherry,cherry,cong,1,443
9,male,meditate,1,6,cherry,hammer,incong,1,530
9,male,meditate,1,7,fork,dog,incong,1,486
9,male,meditate,1,8,lemon,anchor,incong,1,565
9,male,meditate,1,9,hat,plate,incong,1,545
9,male,meditate,1,10,star,star,cong,1,487
9,male,meditate,1,11,car,car,cong,1,436
9,male,meditate,1,12,car,cake,incong,1,517
9,male,meditate,1,13,plate,cat,incong,0,499
9,male,meditate,1,14,stapler,carrot,incong,1,588
9,male,meditate,1,15,hat,hat,cong,1,498
9,male,meditate,2,16,tree,tree,cong,1,474
9,male,meditate,2,17,anchor,anchor,cong,1,482
9,male,meditate,2,18,boat,stapler,incong,1,585
9,male,meditate,2,19,hammer,moon,incong,1,527
9,male,meditate,2,20,ball,ball,cong,1,518
9,male,meditate,2,21,fork,fork,cong,1,444
9,male,meditate,2,22,plate,plate,cong,1,470
9,male,meditate,2,23,carrot,church,incong,1,530
9,male,meditate,2,24,scissors,car,incong,1,549
9,male,meditate,2,25,cat,cat,cong,1,486
9,male,meditate,2,26,apple,horse,incong,1,555
9,male,meditate,2,27,anchor,ball,incong,0,577
9,male,meditate,2,28,pizza,pizza,cong,1,468
9,male,meditate,2,29,cake,cake,cong,1,503
9,male,meditate,2,30,cake,tree,incong,1,519
9,male,meditate,1,31,bus,bus,cong,1,569
9,male,meditate,1,32,church,church,cong,1,458
9,male,meditate,1,33,moon,shoe,incong,1,592
9,male,meditate,1,34,scissors,scissors,cong,1,445
9,male,meditate,1,35,horse,burger,incong,1,537
9,male,meditate,1,36,carrot,carrot,cong,1,508
9,male,meditate,1,37,drill,hat,incong,1,496
9,male,meditate,1,38,shoe,star,incong,1,612
9,male,meditate,1,39,cup,boat,incong,1,538
9,male,meditate,1,40,spoon,spoon,cong,1,491
9,male,meditate,1,41,tree,lemon,incong,1,496
9,male,meditate,1,42,dog,dog,cong,1,461
9,male,meditate,1,43,apple,apple,cong,1,531
9,male,meditate,1,44,shoe,shoe,cong,1,450
9,male,meditate,1,45,stapler,stapler,cong,1,458
9,male,meditate,2,46,bus,cup,incong,1,562
9,male,meditate,2,47,boat,boat,cong,1,534
9,male,meditate,2,48,hammer,hammer,cong,1,494
9,male,meditate,2,49,star,pizza,incong,1,620
9,male,meditate,2,50,moon,moon,cong,1,446
9,male,meditate,2,51,cat,drill,incong,1,567
9,male,meditate,2,52,drill,drill,cong,1,478
9,male,meditate,2,53,dog,fork,incong,1,593
9,male,meditate,2,54,burger,cherry,incong,0,532
9,male,meditate,2,55,spoon,orange,incong,1,504
9,male,meditate,2,56,ball,spoon,incong,1,518
9,male,meditate,2,57,pizza,scissors,incong,1,582
9,male,meditate,2,58,cup,cup,cong,1,463
9,male,meditate,2,59,lemon,lemon,cong,1,445
9,male,meditate,2,60,orange,orange,cong,1,526
10,male,meditate,1,1,carrot,scissors,incong,1,533
10,male,meditate,1,2,bus,bus,cong,1,470
10,male,meditate,1,3,tree,burger,incong,1,609
10,male,meditate,1,4,dog,dog,cong,1,452
10,male,meditate,1,5,church,church,cong,1,498
10,male,meditate,1,6,hat,hat,cong,1,465
10,male,meditate,1,7,cat,moon,incong,1,541
10,male,meditate,1,8,horse,horse,cong,0,554
10,male,meditate,1,9,shoe,hat,incong,1,574
10,male,meditate,1,10,car,car,cong,1,510
10,male,meditate,1,11,cup,cup,cong,1,546
10,male,meditate,1,12,star,carrot,incong,1,506
10,male,meditate,1,13,plate,plate,cong,1,501
10,male,meditate,1,14,ball,horse,incong,1,502
10,male,meditate,1,15,bus,cake,incong,1,503
10,male,meditate,2,16,spoon,ball,incong,1,503
10,male,meditate,2,17,stapler,stapler,cong,1,458
10,male,meditate,2,18,burger,burger,cong,1,493
10,male,meditate,2,19,apple,apple,cong,1,467
10,male,meditate,2,20,burger,anchor,incong,1,533
10,male,meditate,2,21,apple,drill,incong,1,587
10,male,meditate,2,22,boat,shoe,incong,1,586
10,male,meditate,2,23,cake,pizza,incong,1,603
10,male,meditate,2,24,fork,boat,incong,1,562
10,male,meditate,2,25,hat,star,incong,1,667
10,male,meditate,2,26,orange,orange,cong,1,483
10,male,meditate,2,27,anchor,apple,incong,1,646
10,male,meditate,2,28,shoe,shoe,cong,1,465
10,male,meditate,2,29,cat,cat,cong,1,459
10,male,meditate,2,30,pizza,cherry,incong,1,582
10,male,meditate,1,31,spoon,spoon,cong,1,480
10,male,meditate,1,32,carrot,carrot,cong,1,466
10,male,meditate,1,33,anchor,anchor,cong,1,490
10,male,meditate,1,34,ball,ball,cong,1,571
10,male,meditate,1,35,drill,drill,cong,1,546
10,male,meditate,1,36,hammer,orange,incong,1,630
10,male,meditate,1,37,scissors,cup,incong,1,514
10,male,meditate,1,38,horse,spoon,incong,1,579
10,male,meditate,1,39,tree,tree,cong,1,525
10,male,meditate,1,40,cherry,cherry,cong,1,465
10,male,meditate,1,41,orange,lemon,incong,1,522
10,male,meditate,1,42,cup,tree,incong,0,502
10,male,meditate,1,43,church,church,cong,1,637
10,male,meditate,1,44,stapler,dog,incong,1,513
10,male,meditate,1,45,cake,cake,cong,1,521
10,male,meditate,2,46,hammer,hammer,cong,1,493
10,male,meditate,2,47,cherry,stapler,incong,1,568
10,male,meditate,2,48,drill,hammer,incong,1,586
10,male,meditate,2,49,star,star,cong,1,482
10,male,meditate,2,50,moon,moon,cong,0,457
10,male,meditate,2,51,plate,plate,cong,0,551
10,male,meditate,2,52,car,bus,incong,1,561
10,male,meditate,2,53,moon,fork,incong,1,552
10,male,meditate,2,54,dog,car,incong,1,533
10,male,meditate,2,55,boat,boat,cong,1,470
10,male,meditate,2,56,lemon,lemon,cong,1,480
10,male,meditate,2,57,lemon,cat,incong,1,639
10,male,meditate,2,58,fork,fork,cong,1,441
10,male,meditate,2,59,scissors,scissors,cong,1,445
10,male,meditate,2,60,pizza,pizza,cong,1,549
11,male,meditate,1,1,boat,boat,cong,1,477
11,male,meditate,1,2,stapler,car,incong,1,468
11,male,meditate,1,3,horse,horse,cong,1,545
11,male,meditate,1,4,car,car,cong,1,496
11,male,meditate,1,5,fork,cherry,incong,1,446
11,male,meditate,1,6,bus,orange,incong,1,461
11,male,meditate,1,7,star,ball,incong,1,602
11,male,meditate,1,8,cake,cake,cong,1,464
11,male,meditate,1,9,cup,stapler,incong,1,467
11,male,meditate,1,10,plate,tree,incong,1,437
11,male,meditate,1,11,pizza,pizza,cong,1,479
11,male,meditate,1,12,plate,plate,cong,1,462
11,male,meditate,1,13,horse,burger,incong,1,419
11,male,meditate,1,14,ball,ball,cong,1,519
11,male,meditate,1,15,tree,anchor,incong,1,477
11,male,meditate,2,16,dog,dog,cong,1,496
11,male,meditate,2,17,church,hat,incong,1,521
11,male,meditate,2,18,church,church,cong,1,452
11,male,meditate,2,19,cherry,star,incong,1,513
11,male,meditate,2,20,star,star,cong,1,472
11,male,meditate,2,21,cat,horse,incong,1,432
11,male,meditate,2,22,ball,lemon,incong,1,540
11,male,meditate,2,23,hammer,scissors,incong,1,522
11,male,meditate,2,24,orange,cup,incong,1,487
11,male,meditate,2,25,anchor,anchor,cong,1,477
11,male,meditate,2,26,cake,cake,cong,1,565
11,male,meditate,2,27,pizza,pizza,cong,1,506
11,male,meditate,2,28,bus,bus,cong,1,503
11,male,meditate,2,29,burger,burger,cong,1,515
11,male,meditate,2,30,spoon,spoon,cong,1,519
11,male,meditate,1,31,tree,tree,cong,1,523
11,male,meditate,1,32,burger,cat,incong,1,519
11,male,meditate,1,33,shoe,shoe,cong,1,516
11,male,meditate,1,34,apple,apple,cong,1,468
11,male,meditate,1,35,scissors,scissors,cong,0,467
11,male,meditate,1,36,lemon,lemon,cong,1,498
11,male,meditate,1,37,carrot,fork,incong,1,475
11,male,meditate,1,38,hat,spoon,incong,1,536
11,male,meditate,1,39,anchor,apple,incong,1,495
11,male,meditate,1,40,spoon,dog,incong,1,531
11,male,meditate,1,41,scissors,plate,incong,1,534
11,male,meditate,1,42,stapler,stapler,cong,1,571
11,male,meditate,1,43,boat,drill,incong,1,440
11,male,meditate,1,44,hat,hat,cong,1,474
11,male,meditate,1,45,shoe,shoe,cong,1,459
11,male,meditate,2,46,fork,fork,cong,1,458
11,male,meditate,2,47,cherry,cherry,cong,1,472
11,male,meditate,2,48,moon,moon,cong,1,480
11,male,meditate,2,49,car,church,incong,1,479
11,male,meditate,2,50,apple,boat,incong,1,476
11,male,meditate,2,51,moon,carrot,incong,1,415
11,male,meditate,2,52,cup,cup,cong,1,470
11,male,meditate,2,53,lemon,moon,incong,1,455
11,male,meditate,2,54,dog,hammer,incong,1,480
11,male,meditate,2,55,hammer,hammer,cong,1,532
11,male,meditate,2,56,orange,orange,cong,1,525
11,male,meditate,2,57,carrot,carrot,cong,1,468
11,male,meditate,2,58,drill,drill,cong,1,471
11,male,meditate,2,59,cat,cat,cong,1,604
11,male,meditate,2,60,drill,bus,incong,1,431
12,male,meditate,1,1,carrot,spoon,incong,1,327
12,male,meditate,1,2,church,church,cong,1,444
12,male,meditate,1,3,cake,fork,incong,1,281
12,male,meditate,1,4,pizza,boat,incong,1,305
12,male,meditate,1,5,church,star,incong,1,359
12,male,meditate,1,6,hammer,hammer,cong,1,578
12,male,meditate,1,7,apple,horse,incong,1,262
12,male,meditate,1,8,fork,fork,cong,1,449
12,male,meditate,1,9,car,car,cong,1,479
12,male,meditate,1,10,fork,tree,incong,1,347
12,male,meditate,1,11,plate,shoe,incong,1,288
12,male,meditate,1,12,drill,drill,cong,1,484
12,male,meditate,1,13,cherry,cherry,cong,1,412
12,male,meditate,1,14,hammer,scissors,incong,1,285
12,male,meditate,1,15,lemon,pizza,incong,1,264
12,male,meditate,2,16,carrot,carrot,cong,1,431
12,male,meditate,2,17,burger,stapler,incong,1,285
12,male,meditate,2,18,cat,cat,cong,1,455
12,male,meditate,2,19,bus,bus,cong,1,409
12,male,meditate,2,20,cup,burger,incong,1,255
12,male,meditate,2,21,shoe,car,incong,1,257
12,male,meditate,2,22,scissors,cat,incong,1,316
12,male,meditate,2,23,boat,boat,cong,1,450
12,male,meditate,2,24,burger,burger,cong,1,474
12,male,meditate,2,25,tree,tree,cong,1,425
12,male,meditate,2,26,ball,ball,cong,1,250
12,male,meditate,2,27,car,apple,incong,1,302
12,male,meditate,2,28,drill,moon,incong,1,257
12,male,meditate,2,29,cup,cup,cong,1,524
12,male,meditate,2,30,cake,cake,cong,1,497
12,male,meditate,1,31,cat,cake,incong,1,302
12,male,meditate,1,32,spoon,bus,incong,1,324
12,male,meditate,1,33,orange,cherry,incong,1,278
12,male,meditate,1,34,dog,dog,cong,1,543
12,male,meditate,1,35,star,star,cong,1,446
12,male,meditate,1,36,horse,horse,cong,1,480
12,male,meditate,1,37,tree,plate,incong,1,293
12,male,meditate,1,38,apple,apple,cong,1,460
12,male,meditate,1,39,pizza,pizza,cong,1,431
12,male,meditate,1,40,boat,hat,incong,1,316
12,male,meditate,1,41,stapler,church,incong,1,275
12,male,meditate,1,42,stapler,stapler,cong,1,460
12,male,meditate,1,43,anchor,anchor,cong,1,416
12,male,meditate,1,44,plate,plate,cong,1,470
12,male,meditate,1,45,cherry,hammer,incong,1,398
12,male,meditate,2,46,scissors,scissors,cong,1,467
12,male,meditate,2,47,horse,anchor,incong,1,276
12,male,meditate,2,48,moon,carrot,incong,1,282
12,male,meditate,2,49,hat,hat,cong,1,517
12,male,meditate,2,50,spoon,spoon,cong,0,479
12,male,meditate,2,51,orange,orange,cong,1,591
12,male,meditate,2,52,anchor,lemon,incong,1,348
12,male,meditate,2,53,star,cup,incong,1,337
12,male,meditate,2,54,bus,orange,incong,1,279
12,male,meditate,2,55,ball,ball,cong,1,446
12,male,meditate,2,56,hat,dog,incong,1,318
12,male,meditate,2,57,lemon,lemon,cong,1,535
12,male,meditate,2,58,dog,drill,incong,1,556
12,male,meditate,2,59,shoe,shoe,cong,1,519
12,male,meditate,2,60,moon,moon,cong,1,533
13,male,meditate,1,1,drill,tree,incong,1,543
13,male,meditate,1,2,moon,cherry,incong,1,519
13,male,meditate,1,3,hammer,cat,incong,1,546
13,male,meditate,1,4,hat,fork,incong,1,502
13,male,meditate,1,5,cup,drill,incong,1,584
13,male,meditate,1,6,apple,pizza,incong,1,500
13,male,meditate,1,7,anchor,anchor,cong,1,425
13,male,meditate,1,8,star,star,cong,0,464
13,male,meditate,1,9,apple,apple,cong,1,454
13,male,meditate,1,10,car,car,cong,1,522
13,male,meditate,1,11,burger,lemon,incong,1,597
13,male,meditate,1,12,spoon,spoon,cong,1,621
13,male,meditate,1,13,plate,plate,cong,1,420
13,male,meditate,1,14,tree,tree,cong,1,519
13,male,meditate,1,15,cherry,cherry,cong,1,479
13,male,meditate,2,16,tree,stapler,incong,1,523
13,male,meditate,2,17,bus,cake,incong,1,604
13,male,meditate,2,18,hammer,hammer,cong,1,477
13,male,meditate,2,19,ball,star,incong,1,531
13,male,meditate,2,20,spoon,spoon,cong,1,423
13,male,meditate,2,21,cat,cat,cong,1,513
13,male,meditate,2,22,ball,ball,cong,1,508
13,male,meditate,2,23,fork,anchor,incong,1,484
13,male,meditate,2,24,carrot,carrot,cong,1,473
13,male,meditate,2,25,scissors,scissors,cong,1,445
13,male,meditate,2,26,cherry,dog,incong,1,504
13,male,meditate,2,27,stapler,shoe,incong,1,527
13,male,meditate,2,28,church,plate,incong,1,600
13,male,meditate,2,29,cat,apple,incong,1,581
13,male,meditate,2,30,burger,burger,cong,1,502
13,male,meditate,1,31,pizza,pizza,cong,0,418
13,male,meditate,1,32,orange,orange,cong,1,427
13,male,meditate,1,33,boat,burger,incong,1,490
13,male,meditate,1,34,bus,bus,cong,1,494
13,male,meditate,1,35,scissors,carrot,incong,1,533
13,male,meditate,1,36,horse,horse,cong,1,469
13,male,meditate,1,37,church,church,cong,1,448
13,male,meditate,1,38,carrot,moon,incong,1,560
13,male,meditate,1,39,plate,cup,incong,1,607
13,male,meditate,1,40,orange,ball,incong,1,489
13,male,meditate,1,41,cake,cake,cong,1,421
13,male,meditate,1,42,shoe,shoe,cong,1,523
13,male,meditate,1,43,hat,hat,cong,1,479
13,male,meditate,1,44,fork,fork,cong,1,422
13,male,meditate,1,45,lemon,lemon,cong,1,529
13,male,meditate,2,46,cup,cup,cong,1,432
13,male,meditate,2,47,moon,moon,cong,1,418
13,male,meditate,2,48,horse,church,incong,1,553
13,male,meditate,2,49,shoe,scissors,incong,1,515
13,male,meditate,2,50,car,hat,incong,1,628
13,male,meditate,2,51,boat,boat,cong,1,440
13,male,meditate,2,52,cake,car,incong,0,549
13,male,meditate,2,53,dog,dog,cong,1,428
13,male,meditate,2,54,stapler,stapler,cong,1,497
13,male,meditate,2,55,anchor,horse,incong,1,572
13,male,meditate,2,56,pizza,orange,incong,1,568
13,male,meditate,2,57,lemon,hammer,incong,1,539
13,male,meditate,2,58,drill,drill,cong,1,473
13,male,meditate,2,59,star,boat,incong,1,600
13,male,meditate,2,60,dog,bus,incong,1,525
14,male,meditate,1,1,cat,drill,incong,1,507
14,male,meditate,1,2,star,star,cong,1,449
14,male,meditate,1,3,car,car,cong,1,450
14,male,meditate,1,4,orange,tree,incong,1,432
14,male,meditate,1,5,cake,plate,incong,1,399
14,male,meditate,1,6,boat,boat,cong,1,443
14,male,meditate,1,7,plate,stapler,incong,1,383
14,male,meditate,1,8,hammer,horse,incong,1,395
14,male,meditate,1,9,drill,drill,cong,1,494
14,male,meditate,1,10,cherry,cherry,cong,1,527
14,male,meditate,1,11,ball,ball,cong,0,461
14,male,meditate,1,12,dog,carrot,incong,0,535
14,male,meditate,1,13,anchor,anchor,cong,1,452
14,male,meditate,1,14,star,anchor,incong,1,400
14,male,meditate,1,15,drill,cat,incong,1,386
14,male,meditate,2,16,tree,tree,cong,1,524
14,male,meditate,2,17,apple,church,incong,1,477
14,male,meditate,2,18,hammer,hammer,cong,1,509
14,male,meditate,2,19,cup,cup,cong,1,464
14,male,meditate,2,20,church,church,cong,1,463
14,male,meditate,2,21,church,scissors,incong,1,392
14,male,meditate,2,22,spoon,spoon,cong,1,451
14,male,meditate,2,23,shoe,shoe,cong,1,516
14,male,meditate,2,24,orange,orange,cong,1,528
14,male,meditate,2,25,carrot,dog,incong,1,522
14,male,meditate,2,26,ball,bus,incong,1,465
14,male,meditate,2,27,spoon,burger,incong,0,387
14,male,meditate,2,28,fork,fork,cong,1,467
14,male,meditate,2,29,stapler,stapler,cong,1,452
14,male,meditate,2,30,scissors,lemon,incong,1,430
14,male,meditate,1,31,plate,plate,cong,1,442
14,male,meditate,1,32,lemon,car,incong,1,368
14,male,meditate,1,33,anchor,star,incong,1,424
14,male,meditate,1,34,hat,hat,cong,1,491
14,male,meditate,1,35,dog,dog,cong,1,459
14,male,meditate,1,36,hat,hammer,incong,1,398
14,male,meditate,1,37,pizza,pizza,cong,1,441
14,male,meditate,1,38,car,fork,incong,1,489
14,male,meditate,1,39,cup,ball,incong,1,570
14,male,meditate,1,40,stapler,hat,incong,1,451
14,male,meditate,1,41,tree,apple,incong,0,388
14,male,meditate,1,42,shoe,boat,incong,1,428
14,male,meditate,1,43,moon,shoe,incong,1,386
14,male,meditate,1,44,cake,cake,cong,1,436
14,male,meditate,1,45,horse,cup,incong,1,424
14,male,meditate,2,46,fork,spoon,incong,1,399
14,male,meditate,2,47,carrot,carrot,cong,1,442
14,male,meditate,2,48,bus,pizza,incong,1,414
14,male,meditate,2,49,scissors,scissors,cong,1,468
14,male,meditate,2,50,burger,burger,cong,1,477
14,male,meditate,2,51,bus,bus,cong,1,476
14,male,meditate,2,52,cherry,cake,incong,1,383
14,male,meditate,2,53,boat,moon,incong,1,445
14,male,meditate,2,54,cat,cat,cong,0,470
14,male,meditate,2,55,burger,cherry,incong,1,405
14,male,meditate,2,56,pizza,orange,incong,0,415
14,male,meditate,2,57,moon,moon,cong,1,439
14,male,meditate,2,58,lemon,lemon,cong,1,438
14,male,meditate,2,59,horse,horse,cong,1,506
14,male,meditate,2,60,apple,apple,cong,1,475
15,male,meditate,1,1,star,star,cong,1,550
15,male,meditate,1,2,carrot,carrot,cong,1,508
15,male,meditate,1,3,stapler,apple,incong,1,386
15,male,meditate,1,4,cup,cherry,incong,1,347
15,male,meditate,1,5,moon,moon,cong,1,543
15,male,meditate,1,6,drill,moon,incong,1,438
15,male,meditate,1,7,fork,cake,incong,1,347
15,male,meditate,1,8,scissors,scissors,cong,1,537
15,male,meditate,1,9,shoe,shoe,cong,1,549
15,male,meditate,1,10,anchor,orange,incong,1,447
15,male,meditate,1,11,pizza,pizza,cong,1,491
15,male,meditate,1,12,apple,apple,cong,1,533
15,male,meditate,1,13,car,car,cong,1,540
15,male,meditate,1,14,boat,cup,incong,0,390
15,male,meditate,1,15,boat,boat,cong,1,485
15,male,meditate,2,16,spoon,spoon,cong,1,500
15,male,meditate,2,17,church,lemon,incong,1,576
15,male,meditate,2,18,hat,hat,cong,1,448
15,male,meditate,2,19,hammer,hat,incong,1,444
15,male,meditate,2,20,bus,bus,cong,1,537
15,male,meditate,2,21,lemon,lemon,cong,1,596
15,male,meditate,2,22,moon,star,incong,1,404
15,male,meditate,2,23,cherry,cherry,cong,1,448
15,male,meditate,2,24,ball,ball,cong,1,470
15,male,meditate,2,25,cup,cup,cong,1,507
15,male,meditate,2,26,bus,church,incong,1,384
15,male,meditate,2,27,cherry,drill,incong,0,348
15,male,meditate,2,28,drill,drill,cong,1,567
15,male,meditate,2,29,scissors,bus,incong,1,380
15,male,meditate,2,30,orange,orange,cong,1,552
15,male,meditate,1,31,horse,horse,cong,1,496
15,male,meditate,1,32,dog,dog,cong,1,500
15,male,meditate,1,33,hat,stapler,incong,0,382
15,male,meditate,1,34,apple,scissors,incong,1,350
15,male,meditate,1,35,tree,tree,cong,1,478
15,male,meditate,1,36,cat,cat,cong,1,734
15,male,meditate,1,37,plate,cat,incong,1,414
15,male,meditate,1,38,ball,spoon,incong,1,409
15,male,meditate,1,39,shoe,burger,incong,1,520
15,male,meditate,1,40,star,carrot,incong,1,421
15,male,meditate,1,41,stapler,stapler,cong,1,449
15,male,meditate,1,42,lemon,anchor,incong,1,482
15,male,meditate,1,43,burger,boat,incong,1,361
15,male,meditate,1,44,church,church,cong,1,460
15,male,meditate,1,45,orange,car,incong,1,354
15,male,meditate,2,46,car,tree,incong,1,423
15,male,meditate,2,47,cake,cake,cong,1,482
15,male,meditate,2,48,spoon,pizza,incong,1,515
15,male,meditate,2,49,hammer,hammer,cong,0,481
15,male,meditate,2,50,carrot,plate,incong,1,539
15,male,meditate,2,51,cat,hammer,incong,1,576
15,male,meditate,2,52,fork,fork,cong,1,484
15,male,meditate,2,53,horse,fork,incong,0,355
15,male,meditate,2,54,dog,shoe,incong,1,373
15,male,meditate,2,55,tree,ball,incong,1,401
15,male,meditate,2,56,anchor,anchor,cong,1,448
15,male,meditate,2,57,pizza,horse,incong,1,461
15,male,meditate,2,58,plate,plate,cong,1,472
15,male,meditate,2,59,burger,burger,cong,1,505
15,male,meditate,2,60,cake,dog,incong,1,569
16,male,meditate,1,1,lemon,lemon,cong,1,481
16,male,meditate,1,2,scissors,scissors,cong,1,506
16,male,meditate,1,3,apple,church,incong,1,646
16,male,meditate,1,4,drill,plate,incong,1,567
16,male,meditate,1,5,church,hammer,incong,1,525
16,male,meditate,1,6,shoe,drill,incong,1,545
16,male,meditate,1,7,pizza,car,incong,1,522
16,male,meditate,1,8,orange,orange,cong,1,477
16,male,meditate,1,9,car,car,cong,0,513
16,male,meditate,1,10,spoon,ball,incong,1,587
16,male,meditate,1,11,hat,tree,incong,1,536
16,male,meditate,1,12,star,star,cong,1,484
16,male,meditate,1,13,hammer,hammer,cong,1,553
16,male,meditate,1,14,spoon,spoon,cong,1,553
16,male,meditate,1,15,stapler,cup,incong,1,669
16,male,meditate,2,16,lemon,stapler,incong,1,522
16,male,meditate,2,17,star,shoe,incong,1,476
16,male,meditate,2,18,dog,anchor,incong,1,508
16,male,meditate,2,19,ball,cat,incong,1,504
16,male,meditate,2,20,boat,horse,incong,0,497
16,male,meditate,2,21,horse,dog,incong,0,527
16,male,meditate,2,22,cherry,cherry,cong,1,477
16,male,meditate,2,23,bus,hat,incong,1,470
16,male,meditate,2,24,stapler,stapler,cong,1,474
16,male,meditate,2,25,cake,moon,incong,0,571
16,male,meditate,2,26,dog,dog,cong,1,490
16,male,meditate,2,27,cat,cat,cong,1,458
16,male,meditate,2,28,moon,boat,incong,1,480
16,male,meditate,2,29,burger,burger,cong,1,478
16,male,meditate,2,30,bus,bus,cong,1,502
16,male,meditate,1,31,hammer,star,incong,1,553
16,male,meditate,1,32,drill,drill,cong,1,488
16,male,meditate,1,33,cup,cup,cong,1,462
16,male,meditate,1,34,carrot,carrot,cong,1,474
16,male,meditate,1,35,apple,apple,cong,1,521
16,male,meditate,1,36,anchor,scissors,incong,1,467
16,male,meditate,1,37,tree,cake,incong,1,545
16,male,meditate,1,38,shoe,shoe,cong,1,521
16,male,meditate,1,39,plate,bus,incong,1,554
16,male,meditate,1,40,cherry,spoon,incong,0,624
16,male,meditate,1,41,cup,lemon,incong,1,480
16,male,meditate,1,42,church,church,cong,1,504
16,male,meditate,1,43,fork,fork,cong,1,474
16,male,meditate,1,44,car,apple,incong,1,489
16,male,meditate,1,45,carrot,pizza,incong,1,474
16,male,meditate,2,46,anchor,anchor,cong,1,490
16,male,meditate,2,47,ball,ball,cong,1,474
16,male,meditate,2,48,fork,fork,cong,1,524
16,male,meditate,2,49,tree,tree,cong,1,496
16,male,meditate,2,50,moon,moon,cong,1,475
16,male,meditate,2,51,hat,hat,cong,1,494
16,male,meditate,2,52,orange,cherry,incong,1,579
16,male,meditate,2,53,scissors,carrot,incong,1,510
16,male,meditate,2,54,cake,cake,cong,1,525
16,male,meditate,2,55,cat,orange,incong,0,538
16,male,meditate,2,56,burger,burger,cong,1,530
16,male,meditate,2,57,pizza,pizza,cong,1,479
16,male,meditate,2,58,boat,boat,cong,1,518
16,male,meditate,2,59,plate,plate,cong,1,493
16,male,meditate,2,60,horse,horse,cong,1,502
17,male,meditate,1,1,cake,star,incong,1,734
17,male,meditate,1,2,cat,cat,cong,1,450
17,male,meditate,1,3,scissors,moon,incong,1,672
17,male,meditate,1,4,carrot,carrot,cong,1,514
17,male,meditate,1,5,cherry,cherry,cong,1,515
17,male,meditate,1,6,lemon,lemon,cong,1,488
17,male,meditate,1,7,horse,horse,cong,1,496
17,male,meditate,1,8,cat,orange,incong,1,677
17,male,meditate,1,9,hammer,hammer,cong,1,443
17,male,meditate,1,10,boat,ball,incong,1,604
17,male,meditate,1,11,tree,scissors,incong,1,609
17,male,meditate,1,12,hammer,bus,incong,1,748
17,male,meditate,1,13,carrot,boat,incong,1,655
17,male,meditate,1,14,church,church,cong,1,682
17,male,meditate,1,15,drill,apple,incong,1,635
17,male,meditate,2,16,shoe,shoe,cong,1,453
17,male,meditate,2,17,lemon,burger,incong,1,633
17,male,meditate,2,18,bus,tree,incong,1,650
17,male,meditate,2,19,stapler,drill,incong,0,740
17,male,meditate,2,20,horse,carrot,incong,1,641
17,male,meditate,2,21,star,cherry,incong,1,611
17,male,meditate,2,22,hat,cat,incong,0,752
17,male,meditate,2,23,orange,orange,cong,1,524
17,male,meditate,2,24,burger,burger,cong,1,457
17,male,meditate,2,25,dog,dog,cong,1,501
17,male,meditate,2,26,ball,cake,incong,1,610
17,male,meditate,2,27,fork,fork,cong,1,448
17,male,meditate,2,28,moon,moon,cong,1,518
17,male,meditate,2,29,plate,plate,cong,1,500
17,male,meditate,2,30,apple,apple,cong,1,484
17,male,meditate,1,31,boat,boat,cong,1,481
17,male,meditate,1,32,spoon,spoon,cong,1,452
17,male,meditate,1,33,ball,ball,cong,1,541
17,male,meditate,1,34,anchor,anchor,cong,1,474
17,male,meditate,1,35,anchor,cup,incong,1,649
17,male,meditate,1,36,moon,stapler,incong,0,814
17,male,meditate,1,37,fork,horse,incong,1,629
17,male,meditate,1,38,spoon,shoe,incong,1,641
17,male,meditate,1,39,shoe,hat,incong,1,646
17,male,meditate,1,40,pizza,hammer,incong,1,779
17,male,meditate,1,41,cup,lemon,incong,1,692
17,male,meditate,1,42,cup,cup,cong,1,446
17,male,meditate,1,43,drill,drill,cong,1,442
17,male,meditate,1,44,dog,fork,incong,1,672
17,male,meditate,1,45,apple,spoon,incong,1,813
17,male,meditate,2,46,plate,plate,cong,1,681
17,male,meditate,2,47,tree,tree,cong,1,456
17,male,meditate,2,48,hat,hat,cong,0,515
17,male,meditate,2,49,stapler,stapler,cong,1,469
17,male,meditate,2,50,scissors,scissors,cong,1,449
17,male,meditate,2,51,cherry,car,incong,1,626
17,male,meditate,2,52,car,dog,incong,1,705
17,male,meditate,2,53,car,car,cong,1,481
17,male,meditate,2,54,burger,pizza,incong,1,638
17,male,meditate,2,55,orange,anchor,incong,1,684
17,male,meditate,2,56,pizza,pizza,cong,1,452
17,male,meditate,2,57,cake,cake,cong,1,502
17,male,meditate,2,58,star,star,cong,1,447
17,male,meditate,2,59,church,church,cong,1,491
17,male,meditate,2,60,bus,bus,cong,1,473
18,male,meditate,1,1,orange,car,incong,1,679
18,male,meditate,1,2,ball,bus,incong,1,782
18,male,meditate,1,3,dog,dog,cong,1,441
18,male,meditate,1,4,tree,tree,cong,1,441
18,male,meditate,1,5,moon,moon,cong,1,495
18,male,meditate,1,6,fork,dog,incong,1,653
18,male,meditate,1,7,spoon,apple,incong,1,725
18,male,meditate,1,8,hammer,shoe,incong,1,665
18,male,meditate,1,9,shoe,shoe,cong,1,464
18,male,meditate,1,10,drill,drill,cong,1,447
18,male,meditate,1,11,fork,fork,cong,1,444
18,male,meditate,1,12,star,star,cong,1,509
18,male,meditate,1,13,cat,cat,cong,1,637
18,male,meditate,1,14,church,church,cong,1,549
18,male,meditate,1,15,hammer,hammer,cong,1,466
18,male,meditate,2,16,cat,hat,incong,1,726
18,male,meditate,2,17,lemon,cat,incong,1,634
18,male,meditate,2,18,burger,burger,cong,1,558
18,male,meditate,2,19,drill,spoon,incong,1,630
18,male,meditate,2,20,boat,orange,incong,1,668
18,male,meditate,2,21,anchor,hammer,incong,1,646
18,male,meditate,2,22,cake,cake,cong,1,638
18,male,meditate,2,23,apple,scissors,incong,1,742
18,male,meditate,2,24,bus,bus,cong,1,507
18,male,meditate,2,25,scissors,scissors,cong,1,452
18,male,meditate,2,26,anchor,anchor,cong,1,466
18,male,meditate,2,27,ball,ball,cong,0,454
18,male,meditate,2,28,pizza,ball,incong,1,634
18,male,meditate,2,29,burger,anchor,incong,1,686
18,male,meditate,2,30,cherry,fork,incong,1,814
18,male,meditate,1,31,tree,horse,incong,1,678
18,male,meditate,1,32,moon,carrot,incong,1,626
18,male,meditate,1,33,apple,apple,cong,1,510
18,male,meditate,1,34,plate,plate,cong,1,648
18,male,meditate,1,35,spoon,spoon,cong,1,559
18,male,meditate,1,36,horse,horse,cong,1,519
18,male,meditate,1,37,star,tree,incong,1,647
18,male,meditate,1,38,car,car,cong,1,539
18,male,meditate,1,39,hat,pizza,incong,1,637
18,male,meditate,1,40,cake,lemon,incong,1,630
18,male,meditate,1,41,stapler,stapler,cong,1,479
18,male,meditate,1,42,scissors,burger,incong,1,730
18,male,meditate,1,43,dog,star,incong,1,738
18,male,meditate,1,44,cup,cup,cong,1,638
18,male,meditate,1,45,orange,orange,cong,1,467
18,male,meditate,2,46,horse,cake,incong,1,637
18,male,meditate,2,47,cup,cup,cong,1,491
18,male,meditate,2,48,cherry,cherry,cong,1,478
18,male,meditate,2,49,stapler,church,incong,1,634
18,male,meditate,2,50,boat,boat,cong,1,541
18,male,meditate,2,51,plate,plate,cong,1,496
18,male,meditate,2,52,carrot,cherry,incong,1,623
18,male,meditate,2,53,pizza,pizza,cong,1,455
18,male,meditate,2,54,shoe,drill,incong,1,691
18,male,meditate,2,55,car,stapler,incong,1,683
18,male,meditate,2,56,church,moon,incong,1,638
18,male,meditate,2,57,carrot,carrot,cong,1,600
18,male,meditate,2,58,lemon,lemon,cong,1,516
18,male,meditate,2,59,hat,hat,cong,1,477
18,male,meditate,2,60,bus,boat,incong,1,688
19,male,meditate,1,1,anchor,anchor,cong,1,517
19,male,meditate,1,2,horse,horse,cong,1,501
19,male,meditate,1,3,lemon,pizza,incong,1,583
19,male,meditate,1,4,drill,church,incong,1,446
19,male,meditate,1,5,moon,star,incong,1,487
19,male,meditate,1,6,church,church,cong,1,543
19,male,meditate,1,7,plate,plate,cong,1,539
19,male,meditate,1,8,anchor,bus,incong,1,536
19,male,meditate,1,9,boat,cherry,incong,1,451
19,male,meditate,1,10,tree,car,incong,1,553
19,male,meditate,1,11,cake,cake,cong,1,533
19,male,meditate,1,12,orange,orange,cong,1,539
19,male,meditate,1,13,dog,dog,cong,1,581
19,male,meditate,1,14,hat,hat,cong,1,496
19,male,meditate,1,15,cherry,cherry,cong,1,546
19,male,meditate,2,16,burger,burger,cong,1,538
19,male,meditate,2,17,church,ball,incong,1,470
19,male,meditate,2,18,fork,stapler,incong,1,459
19,male,meditate,2,19,fork,fork,cong,1,518
19,male,meditate,2,20,hammer,hammer,cong,1,550
19,male,meditate,2,21,drill,drill,cong,1,546
19,male,meditate,2,22,plate,dog,incong,1,576
19,male,meditate,2,23,stapler,stapler,cong,1,494
19,male,meditate,2,24,cat,cat,cong,1,454
19,male,meditate,2,25,carrot,hat,incong,1,500
19,male,meditate,2,26,car,car,cong,1,551
19,male,meditate,2,27,carrot,carrot,cong,1,551
19,male,meditate,2,28,tree,tree,cong,1,504
19,male,meditate,2,29,cup,cup,cong,1,509
19,male,meditate,2,30,cup,boat,incong,1,590
19,male,meditate,1,31,spoon,hammer,incong,1,490
19,male,meditate,1,32,scissors,scissors,cong,1,507
19,male,meditate,1,33,moon,moon,cong,1,506
19,male,meditate,1,34,cherry,apple,incong,1,500
19,male,meditate,1,35,lemon,lemon,cong,1,487
19,male,meditate,1,36,stapler,fork,incong,1,484
19,male,meditate,1,37,dog,burger,incong,1,498
19,male,meditate,1,38,apple,apple,cong,1,536
19,male,meditate,1,39,ball,lemon,incong,1,501
19,male,meditate,1,40,hat,shoe,incong,1,460
19,male,meditate,1,41,scissors,drill,incong,1,487
19,male,meditate,1,42,burger,anchor,incong,1,482
19,male,meditate,1,43,star,cup,incong,1,450
19,male,meditate,1,44,orange,scissors,incong,1,527
19,male,meditate,1,45,hammer,spoon,incong,1,532
19,male,meditate,2,46,spoon,spoon,cong,1,520
19,male,meditate,2,47,pizza,cake,incong,1,538
19,male,meditate,2,48,star,star,cong,1,538
19,male,meditate,2,49,bus,bus,cong,1,521
19,male,meditate,2,50,horse,moon,incong,1,490
19,male,meditate,2,51,shoe,carrot,incong,1,584
19,male,meditate,2,52,boat,boat,cong,1,489
19,male,meditate,2,53,pizza,pizza,cong,1,568
19,male,meditate,2,54,ball,ball,cong,1,526
19,male,meditate,2,55,cake,horse,incong,1,459
19,male,meditate,2,56,bus,tree,incong,1,589
19,male,meditate,2,57,cat,cat,cong,1,524
19,male,meditate,2,58,car,orange,incong,1,530
19,male,meditate,2,59,apple,plate,incong,1,494
19,male,meditate,2,60,shoe,shoe,cong,1,492
20,male,meditate,1,1,ball,bus,incong,1,438
20,male,meditate,1,2,bus,bus,cong,1,467
20,male,meditate,1,3,carrot,carrot,cong,1,544
20,male,meditate,1,4,tree,tree,cong,1,480
20,male,meditate,1,5,tree,apple,incong,1,377
20,male,meditate,1,6,orange,orange,cong,1,450
20,male,meditate,1,7,drill,tree,incong,1,454
20,male,meditate,1,8,hammer,hammer,cong,1,521
20,male,meditate,1,9,hat,lemon,incong,1,339
20,male,meditate,1,10,lemon,stapler,incong,1,344
20,male,meditate,1,11,drill,drill,cong,1,487
20,male,meditate,1,12,plate,orange,incong,1,337
20,male,meditate,1,13,shoe,shoe,cong,1,521
20,male,meditate,1,14,horse,horse,cong,1,465
20,male,meditate,1,15,cup,cup,cong,1,468
20,male,meditate,2,16,pizza,pizza,cong,1,352
20,male,meditate,2,17,cat,cat,cong,1,475
20,male,meditate,2,18,dog,church,incong,1,326
20,male,meditate,2,19,cherry,scissors,incong,1,490
20,male,meditate,2,20,car,cake,incong,1,375
20,male,meditate,2,21,cake,cake,cong,1,492
20,male,meditate,2,22,scissors,hammer,incong,1,326
20,male,meditate,2,23,pizza,pizza,cong,1,517
20,male,meditate,2,24,fork,boat,incong,1,401
20,male,meditate,2,25,cat,dog,incong,1,361
20,male,meditate,2,26,carrot,shoe,incong,1,358
20,male,meditate,2,27,stapler,carrot,incong,1,386
20,male,meditate,2,28,lemon,lemon,cong,1,517
20,male,meditate,2,29,orange,drill,incong,1,347
20,male,meditate,2,30,fork,fork,cong,1,462
20,male,meditate,1,31,star,star,cong,1,479
20,male,meditate,1,32,hammer,spoon,incong,1,397
20,male,meditate,1,33,church,cup,incong,1,371
20,male,meditate,1,34,bus,hat,incong,1,336
20,male,meditate,1,35,horse,burger,incong,1,352
20,male,meditate,1,36,anchor,anchor,cong,1,491
20,male,meditate,1,37,cup,fork,incong,1,335
20,male,meditate,1,38,anchor,plate,incong,1,480
20,male,meditate,1,39,cherry,cherry,cong,1,483
20,male,meditate,1,40,burger,burger,cong,1,632
20,male,meditate,1,41,dog,dog,cong,1,537
20,male,meditate,1,42,ball,ball,cong,1,461
20,male,meditate,1,43,apple,ball,incong,1,514
20,male,meditate,1,44,cake,cherry,incong,1,410
20,male,meditate,1,45,boat,boat,cong,1,511
20,male,meditate,2,46,scissors,scissors,cong,1,479
20,male,meditate,2,47,star,moon,incong,1,345
20,male,meditate,2,48,boat,anchor,incong,1,329
20,male,meditate,2,49,spoon,spoon,cong,1,490
20,male,meditate,2,50,stapler,stapler,cong,1,516
20,male,meditate,2,51,spoon,cat,incong,1,412
20,male,meditate,2,52,apple,apple,cong,1,485
20,male,meditate,2,53,shoe,horse,incong,1,410
20,male,meditate,2,54,moon,moon,cong,1,532
20,male,meditate,2,55,moon,star,incong,1,408
20,male,meditate,2,56,burger,car,incong,1,318
20,male,meditate,2,57,plate,plate,cong,1,500
20,male,meditate,2,58,church,church,cong,1,456
20,male,meditate,2,59,car,car,cong,1,457
20,male,meditate,2,60,hat,hat,cong,1,508
21,male,meditate,1,1,dog,dog,cong,1,600
21,male,meditate,1,2,hat,hat,cong,0,535
21,male,meditate,1,3,fork,moon,incong,1,432
21,male,meditate,1,4,moon,horse,incong,1,401
21,male,meditate,1,5,lemon,orange,incong,1,438
21,male,meditate,1,6,horse,cup,incong,1,534
21,male,meditate,1,7,hammer,spoon,incong,1,488
21,male,meditate,1,8,bus,stapler,incong,1,476
21,male,meditate,1,9,ball,apple,incong,1,492
21,male,meditate,1,10,spoon,carrot,incong,1,456
21,male,meditate,1,11,car,anchor,incong,1,428
21,male,meditate,1,12,cat,pizza,incong,1,614
21,male,meditate,1,13,plate,ball,incong,1,436
21,male,meditate,1,14,boat,cake,incong,1,402
21,male,meditate,1,15,cherry,cherry,cong,1,529
21,male,meditate,2,16,cake,tree,incong,1,578
21,male,meditate,2,17,anchor,car,incong,1,534
21,male,meditate,2,18,hammer,hammer,cong,1,596
21,male,meditate,2,19,pizza,pizza,cong,1,531
21,male,meditate,2,20,hat,dog,incong,1,492
21,male,meditate,2,21,apple,apple,cong,1,544
21,male,meditate,2,22,cat,cat,cong,1,500
21,male,meditate,2,23,burger,hammer,incong,1,480
21,male,meditate,2,24,carrot,carrot,cong,1,556
21,male,meditate,2,25,orange,boat,incong,1,442
21,male,meditate,2,26,spoon,spoon,cong,1,538
21,male,meditate,2,27,shoe,bus,incong,1,428
21,male,meditate,2,28,stapler,stapler,cong,1,561
21,male,meditate,2,29,plate,plate,cong,1,597
21,male,meditate,2,30,cup,shoe,incong,0,397
21,male,meditate,1,31,fork,fork,cong,1,515
21,male,meditate,1,32,cherry,cherry,cong,1,565
21,male,meditate,1,33,shoe,shoe,cong,1,625
21,male,meditate,1,34,bus,bus,cong,1,589
21,male,meditate,1,35,apple,fork,incong,1,429
21,male,meditate,1,36,church,church,cong,0,531
21,male,meditate,1,37,anchor,anchor,cong,1,513
21,male,meditate,1,38,moon,moon,cong,1,585
21,male,meditate,1,39,carrot,hat,incong,1,524
21,male,meditate,1,40,scissors,scissors,cong,1,524
21,male,meditate,1,41,tree,lemon,incong,1,450
21,male,meditate,1,42,cake,cake,cong,1,537
21,male,meditate,1,43,burger,burger,cong,1,536
21,male,meditate,1,44,church,cat,incong,1,429
21,male,meditate,1,45,star,burger,incong,1,413
21,male,meditate,2,46,cup,cup,cong,1,513
21,male,meditate,2,47,dog,plate,incong,1,459
21,male,meditate,2,48,lemon,lemon,cong,1,522
21,male,meditate,2,49,boat,boat,cong,1,576
21,male,meditate,2,50,car,car,cong,1,586
21,male,meditate,2,51,drill,drill,cong,1,519
21,male,meditate,2,52,scissors,drill,incong,0,413
21,male,meditate,2,53,star,star,cong,1,519
21,male,meditate,2,54,tree,tree,cong,1,596
21,male,meditate,2,55,ball,ball,cong,1,499
21,male,meditate,2,56,horse,horse,cong,1,611
21,male,meditate,2,57,stapler,church,incong,1,459
21,male,meditate,2,58,drill,star,incong,1,415
21,male,meditate,2,59,orange,orange,cong,1,529
21,male,meditate,2,60,pizza,scissors,incong,0,414
22,male,meditate,1,1,lemon,lemon,cong,1,517
22,male,meditate,1,2,church,church,cong,1,491
22,male,meditate,1,3,drill,drill,cong,1,460
22,male,meditate,1,4,apple,apple,cong,1,474
22,male,meditate,1,5,fork,fork,cong,0,540
22,male,meditate,1,6,moon,moon,cong,1,493
22,male,meditate,1,7,spoon,cat,incong,1,686
22,male,meditate,1,8,scissors,scissors,cong,1,481
22,male,meditate,1,9,hammer,hammer,cong,1,558
22,male,meditate,1,10,car,car,cong,1,584
22,male,meditate,1,11,dog,dog,cong,1,489
22,male,meditate,1,12,hat,plate,incong,1,740
22,male,meditate,1,13,orange,orange,cong,1,490
22,male,meditate,1,14,spoon,spoon,cong,1,522
22,male,meditate,1,15,apple,drill,incong,1,769
22,male,meditate,2,16,horse,anchor,incong,1,928
22,male,meditate,2,17,star,star,cong,1,465
22,male,meditate,2,18,orange,dog,incong,1,698
22,male,meditate,2,19,anchor,anchor,cong,1,582
22,male,meditate,2,20,drill,bus,incong,1,659
22,male,meditate,2,21,cake,cake,cong,1,501
22,male,meditate,2,22,boat,boat,cong,1,563
22,male,meditate,2,23,ball,ball,cong,1,562
22,male,meditate,2,24,hammer,cup,incong,1,770
22,male,meditate,2,25,pizza,pizza,cong,1,511
22,male,meditate,2,26,cat,fork,incong,0,669
22,male,meditate,2,27,stapler,spoon,incong,1,672
22,male,meditate,2,28,hat,hat,cong,1,504
22,male,meditate,2,29,ball,car,incong,1,706
22,male,meditate,2,30,moon,tree,incong,1,715
22,male,meditate,1,31,cherry,hammer,incong,1,669
22,male,meditate,1,32,carrot,carrot,cong,1,537
22,male,meditate,1,33,cat,cat,cong,1,541
22,male,meditate,1,34,dog,apple,incong,1,683
22,male,meditate,1,35,cherry,cherry,cong,1,564
22,male,meditate,1,36,carrot,cherry,incong,1,780
22,male,meditate,1,37,cup,cup,cong,1,486
22,male,meditate,1,38,burger,shoe,incong,1,709
22,male,meditate,1,39,fork,boat,incong,1,698
22,male,meditate,1,40,shoe,shoe,cong,1,490
22,male,meditate,1,41,car,carrot,incong,1,724
22,male,meditate,1,42,star,cake,incong,1,747
22,male,meditate,1,43,stapler,stapler,cong,1,500
22,male,meditate,1,44,horse,horse,cong,1,503
22,male,meditate,1,45,anchor,lemon,incong,1,679
22,male,meditate,2,46,lemon,horse,incong,1,764
22,male,meditate,2,47,burger,burger,cong,1,526
22,male,meditate,2,48,tree,burger,incong,1,799
22,male,meditate,2,49,boat,orange,incong,1,789
22,male,meditate,2,50,pizza,hat,incong,1,745
22,male,meditate,2,51,shoe,church,incong,1,720
22,male,meditate,2,52,plate,scissors,incong,1,710
22,male,meditate,2,53,bus,moon,incong,1,670
22,male,meditate,2,54,bus,bus,cong,1,502
22,male,meditate,2,55,cake,pizza,incong,1,675
22,male,meditate,2,56,scissors,stapler,incong,1,723
22,male,meditate,2,57,plate,plate,cong,0,489
22,male,meditate,2,58,cup,star,incong,1,704
22,male,meditate,2,59,tree,tree,cong,1,512
22,male,meditate,2,60,church,ball,incong,1,700
23,male,meditate,1,1,horse,horse,cong,1,522
23,male,meditate,1,2,lemon,scissors,incong,1,615
23,male,meditate,1,3,plate,fork,incong,1,628
23,male,meditate,1,4,ball,ball,cong,1,640
23,male,meditate,1,5,lemon,lemon,cong,1,581
23,male,meditate,1,6,moon,moon,cong,1,526
23,male,meditate,1,7,plate,plate,cong,1,580
23,male,meditate,1,8,apple,apple,cong,1,552
23,male,meditate,1,9,tree,tree,cong,1,509
23,male,meditate,1,10,shoe,ball,incong,1,605
23,male,meditate,1,11,burger,burger,cong,1,515
23,male,meditate,1,12,hat,hat,cong,1,556
23,male,meditate,1,13,scissors,scissors,cong,1,588
23,male,meditate,1,14,cup,cup,cong,1,507
23,male,meditate,1,15,orange,boat,incong,1,616
23,male,meditate,2,16,car,hammer,incong,1,651
23,male,meditate,2,17,stapler,dog,incong,1,598
23,male,meditate,2,18,anchor,lemon,incong,1,709
23,male,meditate,2,19,cup,horse,incong,1,597
23,male,meditate,2,20,carrot,carrot,cong,1,527
23,male,meditate,2,21,star,star,cong,1,680
23,male,meditate,2,22,boat,stapler,incong,1,631
23,male,meditate,2,23,moon,carrot,incong,1,628
23,male,meditate,2,24,cat,hat,incong,1,788
23,male,meditate,2,25,spoon,spoon,cong,1,538
23,male,meditate,2,26,cherry,bus,incong,1,720
23,male,meditate,2,27,ball,car,incong,1,672
23,male,meditate,2,28,apple,pizza,incong,1,665
23,male,meditate,2,29,hammer,hammer,cong,1,501
23,male,meditate,2,30,boat,boat,cong,1,498
23,male,meditate,1,31,cherry,cherry,cong,1,610
23,male,meditate,1,32,hammer,moon,incong,1,586
23,male,meditate,1,33,fork,cherry,incong,1,578
23,male,meditate,1,34,bus,bus,cong,1,494
23,male,meditate,1,35,bus,cup,incong,1,659
23,male,meditate,1,36,stapler,stapler,cong,1,533
23,male,meditate,1,37,carrot,plate,incong,1,611
23,male,meditate,1,38,hat,cake,incong,1,583
23,male,meditate,1,39,cat,cat,cong,1,545
23,male,meditate,1,40,orange,orange,cong,1,569
23,male,meditate,1,41,church,church,cong,1,538
23,male,meditate,1,42,cake,tree,incong,1,598
23,male,meditate,1,43,dog,drill,incong,1,598
23,male,meditate,1,44,dog,dog,cong,1,511
23,male,meditate,1,45,drill,orange,incong,1,592
23,male,meditate,2,46,church,burger,incong,1,664
23,male,meditate,2,47,tree,church,incong,1,611
23,male,meditate,2,48,anchor,anchor,cong,1,593
23,male,meditate,2,49,fork,fork,cong,1,537
23,male,meditate,2,50,pizza,pizza,cong,1,583
23,male,meditate,2,51,car,car,cong,1,551
23,male,meditate,2,52,spoon,apple,incong,1,670
23,male,meditate,2,53,scissors,spoon,incong,1,595
23,male,meditate,2,54,burger,shoe,incong,1,604
23,male,meditate,2,55,cake,cake,cong,1,594
23,male,meditate,2,56,horse,anchor,incong,1,578
23,male,meditate,2,57,pizza,cat,incong,1,616
23,male,meditate,2,58,star,star,cong,1,555
23,male,meditate,2,59,drill,drill,cong,1,542
23,male,meditate,2,60,shoe,shoe,cong,1,542
24,male,meditate,1,1,lemon,stapler,incong,1,605
24,male,meditate,1,2,fork,cake,incong,1,569
24,male,meditate,1,3,cup,cup,cong,1,445
24,male,meditate,1,4,drill,hammer,incong,1,650
24,male,meditate,1,5,spoon,spoon,cong,1,464
24,male,meditate,1,6,pizza,pizza,cong,1,521
24,male,meditate,1,7,scissors,fork,incong,1,767
24,male,meditate,1,8,cat,moon,incong,1,644
24,male,meditate,1,9,hat,pizza,incong,1,652
24,male,meditate,1,10,dog,dog,cong,1,444
24,male,meditate,1,11,hammer,tree,incong,1,604
24,male,meditate,1,12,cat,cat,cong,1,483
24,male,meditate,1,13,ball,burger,incong,1,702
24,male,meditate,1,14,cherry,cherry,cong,1,578
24,male,meditate,1,15,carrot,boat,incong,1,649
24,male,meditate,2,16,stapler,hat,incong,1,680
24,male,meditate,2,17,plate,scissors,incong,1,608
24,male,meditate,2,18,shoe,shoe,cong,1,549
24,male,meditate,2,19,spoon,cat,incong,1,634
24,male,meditate,2,20,car,spoon,incong,1,639
24,male,meditate,2,21,dog,cup,incong,1,690
24,male,meditate,2,22,hat,hat,cong,1,447
24,male,meditate,2,23,boat,boat,cong,1,437
24,male,meditate,2,24,tree,lemon,incong,1,715
24,male,meditate,2,25,scissors,scissors,cong,1,472
24,male,meditate,2,26,orange,orange,cong,1,472
24,male,meditate,2,27,cake,cake,cong,1,446
24,male,meditate,2,28,car,car,cong,1,432
24,male,meditate,2,29,ball,ball,cong,1,440
24,male,meditate,2,30,star,horse,incong,1,703
24,male,meditate,1,31,bus,drill,incong,1,659
24,male,meditate,1,32,moon,moon,cong,1,480
24,male,meditate,1,33,carrot,carrot,cong,1,464
24,male,meditate,1,34,cherry,shoe,incong,1,640
24,male,meditate,1,35,cake,apple,incong,1,685
24,male,meditate,1,36,stapler,stapler,cong,0,519
24,male,meditate,1,37,horse,orange,incong,1,562
24,male,meditate,1,38,fork,fork,cong,1,480
24,male,meditate,1,39,cup,plate,incong,1,724
24,male,meditate,1,40,burger,burger,cong,1,441
24,male,meditate,1,41,anchor,anchor,cong,1,494
24,male,meditate,1,42,apple,carrot,incong,1,579
24,male,meditate,1,43,horse,horse,cong,1,471
24,male,meditate,1,44,church,cherry,incong,1,565
24,male,meditate,1,45,anchor,ball,incong,1,646
24,male,meditate,2,46,moon,anchor,incong,1,589
24,male,meditate,2,47,plate,plate,cong,1,442
24,male,meditate,2,48,drill,drill,cong,1,464
24,male,meditate,2,49,pizza,car,incong,1,695
24,male,meditate,2,50,church,church,cong,1,441
24,male,meditate,2,51,orange,bus,incong,1,665
24,male,meditate,2,52,shoe,star,incong,1,578
24,male,meditate,2,53,star,star,cong,1,483
24,male,meditate,2,54,bus,bus,cong,1,447
24,male,meditate,2,55,tree,tree,cong,1,462
24,male,meditate,2,56,lemon,lemon,cong,1,443
24,male,meditate,2,57,burger,church,incong,1,669
24,male,meditate,2,58,boat,dog,incong,1,593
24,male,meditate,2,59,hammer,hammer,cong,1,437
24,male,meditate,2,60,apple,apple,cong,1,486
25,male,meditate,1,1,cherry,dog,incong,1,539
25,male,meditate,1,2,orange,car,incong,1,585
25,male,meditate,1,3,cake,cake,cong,0,532
25,male,meditate,1,4,spoon,cat,incong,1,581
25,male,meditate,1,5,lemon,hammer,incong,1,588
25,male,meditate,1,6,hammer,hammer,cong,1,485
25,male,meditate,1,7,apple,apple,cong,1,487
25,male,meditate,1,8,apple,scissors,incong,1,571
25,male,meditate,1,9,boat,boat,cong,1,461
25,male,meditate,1,10,cup,cup,cong,1,481
25,male,meditate,1,11,carrot,carrot,cong,1,492
25,male,meditate,1,12,tree,church,incong,1,636
25,male,meditate,1,13,star,star,cong,1,501
25,male,meditate,1,14,carrot,fork,incong,1,568
25,male,meditate,1,15,dog,dog,cong,1,553
25,male,meditate,2,16,hat,lemon,incong,1,605
25,male,meditate,2,17,hat,hat,cong,1,542
25,male,meditate,2,18,cherry,cherry,cong,1,458
25,male,meditate,2,19,lemon,lemon,cong,1,608
25,male,meditate,2,20,plate,plate,cong,1,513
25,male,meditate,2,21,scissors,apple,incong,1,551
25,male,meditate,2,22,church,church,cong,1,468
25,male,meditate,2,23,drill,plate,incong,1,548
25,male,meditate,2,24,fork,anchor,incong,1,575
25,male,meditate,2,25,cake,spoon,incong,1,521
25,male,meditate,2,26,shoe,cherry,incong,1,538
25,male,meditate,2,27,scissors,scissors,cong,1,452
25,male,meditate,2,28,burger,carrot,incong,1,500
25,male,meditate,2,29,car,car,cong,1,523
25,male,meditate,2,30,plate,tree,incong,1,539
25,male,meditate,1,31,ball,boat,incong,0,523
25,male,meditate,1,32,anchor,anchor,cong,1,507
25,male,meditate,1,33,cat,horse,incong,1,582
25,male,meditate,1,34,cup,shoe,incong,0,596
25,male,meditate,1,35,dog,moon,incong,1,510
25,male,meditate,1,36,hammer,stapler,incong,1,561
25,male,meditate,1,37,moon,ball,incong,1,509
25,male,meditate,1,38,pizza,pizza,cong,1,628
25,male,meditate,1,39,stapler,stapler,cong,1,457
25,male,meditate,1,40,bus,bus,cong,1,467
25,male,meditate,1,41,drill,drill,cong,1,492
25,male,meditate,1,42,spoon,spoon,cong,1,534
25,male,meditate,1,43,tree,tree,cong,1,471
25,male,meditate,1,44,fork,fork,cong,1,470
25,male,meditate,1,45,shoe,shoe,cong,1,533
25,male,meditate,2,46,ball,ball,cong,0,451
25,male,meditate,2,47,horse,cup,incong,1,563
25,male,meditate,2,48,star,hat,incong,1,563
25,male,meditate,2,49,bus,bus,cong,1,515
25,male,meditate,2,50,boat,burger,incong,1,558
25,male,meditate,2,51,car,orange,incong,1,479
25,male,meditate,2,52,stapler,drill,incong,1,540
25,male,meditate,2,53,burger,burger,cong,1,498
25,male,meditate,2,54,church,star,incong,1,599
25,male,meditate,2,55,horse,horse,cong,1,455
25,male,meditate,2,56,cat,cat,cong,1,459
25,male,meditate,2,57,orange,orange,cong,0,502
25,male,meditate,2,58,anchor,cake,incong,1,527
25,male,meditate,2,59,moon,moon,cong,1,507
25,male,meditate,2,60,pizza,pizza,cong,0,477
26,male,meditate,1,1,hammer,hammer,cong,1,540
26,male,meditate,1,2,ball,ball,cong,1,467
26,male,meditate,1,3,orange,apple,incong,1,446
26,male,meditate,1,4,car,car,cong,1,461
26,male,meditate,1,5,church,cake,incong,1,385
26,male,meditate,1,6,cake,cup,incong,1,433
26,male,meditate,1,7,boat,boat,cong,1,596
26,male,meditate,1,8,cup,cup,cong,1,481
26,male,meditate,1,9,dog,moon,incong,1,376
26,male,meditate,1,10,cat,carrot,incong,1,411
26,male,meditate,1,11,drill,bus,incong,1,453
26,male,meditate,1,12,car,plate,incong,1,378
26,male,meditate,1,13,apple,apple,cong,1,472
26,male,meditate,1,14,ball,shoe,incong,1,366
26,male,meditate,1,15,carrot,carrot,cong,1,505
26,male,meditate,2,16,stapler,stapler,cong,1,486
26,male,meditate,2,17,horse,orange,incong,1,461
26,male,meditate,2,18,apple,star,incong,1,416
26,male,meditate,2,19,tree,pizza,incong,1,466
26,male,meditate,2,20,spoon,fork,incong,1,495
26,male,meditate,2,21,cat,cat,cong,1,516
26,male,meditate,2,22,dog,dog,cong,1,483
26,male,meditate,2,23,star,dog,incong,1,513
26,male,meditate,2,24,burger,car,incong,1,479
26,male,meditate,2,25,pizza,pizza,cong,1,471
26,male,meditate,2,26,shoe,stapler,incong,1,365
26,male,meditate,2,27,lemon,lemon,cong,1,504
26,male,meditate,2,28,fork,fork,cong,1,601
26,male,meditate,2,29,fork,scissors,incong,1,507
26,male,meditate,2,30,spoon,spoon,cong,0,510
26,male,meditate,1,31,hat,hat,cong,1,484
26,male,meditate,1,32,cake,cake,cong,1,549
26,male,meditate,1,33,shoe,shoe,cong,1,464
26,male,meditate,1,34,star,star,cong,1,534
26,male,meditate,1,35,moon,cherry,incong,1,398
26,male,meditate,1,36,scissors,scissors,cong,1,504
26,male,meditate,1,37,bus,bus,cong,1,461
26,male,meditate,1,38,cup,burger,incong,1,478
26,male,meditate,1,39,hammer,horse,incong,1,381
26,male,meditate,1,40,church,church,cong,1,470
26,male,meditate,1,41,burger,burger,cong,1,497
26,male,meditate,1,42,horse,horse,cong,1,481
26,male,meditate,1,43,anchor,anchor,cong,1,507
26,male,meditate,1,44,carrot,spoon,incong,1,356
26,male,meditate,1,45,drill,drill,cong,1,491
26,male,meditate,2,46,cherry,boat,incong,1,372
26,male,meditate,2,47,moon,moon,cong,1,467
26,male,meditate,2,48,lemon,ball,incong,1,480
26,male,meditate,2,49,plate,plate,cong,1,469
26,male,meditate,2,50,orange,orange,cong,1,533
26,male,meditate,2,51,plate,cat,incong,1,445
26,male,meditate,2,52,boat,tree,incong,1,362
26,male,meditate,2,53,bus,hat,incong,1,411
26,male,meditate,2,54,tree,tree,cong,1,551
26,male,meditate,2,55,pizza,lemon,incong,1,406
26,male,meditate,2,56,stapler,drill,incong,1,353
26,male,meditate,2,57,hat,church,incong,1,449
26,male,meditate,2,58,anchor,hammer,incong,1,449
26,male,meditate,2,59,cherry,cherry,cong,1,464
26,male,meditate,2,60,scissors,anchor,incong,1,533
27,male,meditate,1,1,moon,moon,cong,1,502
27,male,meditate,1,2,shoe,drill,incong,1,594
27,male,meditate,1,3,cat,cat,cong,1,528
27,male,meditate,1,4,church,cup,incong,0,595
27,male,meditate,1,5,spoon,spoon,cong,1,467
27,male,meditate,1,6,orange,orange,cong,1,545
27,male,meditate,1,7,carrot,apple,incong,1,580
27,male,meditate,1,8,drill,burger,incong,1,566
27,male,meditate,1,9,anchor,anchor,cong,1,516
27,male,meditate,1,10,horse,horse,cong,1,468
27,male,meditate,1,11,star,hammer,incong,1,571
27,male,meditate,1,12,bus,bus,cong,1,472
27,male,meditate,1,13,fork,fork,cong,1,487
27,male,meditate,1,14,cherry,cherry,cong,1,466
27,male,meditate,1,15,tree,shoe,incong,1,611
27,male,meditate,2,16,plate,car,incong,0,545
27,male,meditate,2,17,cup,cat,incong,1,565
27,male,meditate,2,18,scissors,scissors,cong,1,507
27,male,meditate,2,19,apple,apple,cong,1,472
27,male,meditate,2,20,stapler,cherry,incong,1,566
27,male,meditate,2,21,tree,tree,cong,1,522
27,male,meditate,2,22,pizza,horse,incong,1,604
27,male,meditate,2,23,horse,dog,incong,0,595
27,male,meditate,2,24,hat,ball,incong,1,523
27,male,meditate,2,25,cake,cake,cong,1,511
27,male,meditate,2,26,hat,hat,cong,1,502
27,male,meditate,2,27,apple,pizza,incong,1,544
27,male,meditate,2,28,star,star,cong,1,468
27,male,meditate,2,29,dog,hat,incong,1,720
27,male,meditate,2,30,car,boat,incong,1,676
27,male,meditate,1,31,carrot,carrot,cong,1,589
27,male,meditate,1,32,drill,drill,cong,1,537
27,male,meditate,1,33,spoon,star,incong,1,605
27,male,meditate,1,34,cherry,scissors,incong,1,606
27,male,meditate,1,35,burger,burger,cong,1,458
27,male,meditate,1,36,fork,stapler,incong,1,577
27,male,meditate,1,37,bus,lemon,incong,1,669
27,male,meditate,1,38,plate,plate,cong,1,536
27,male,meditate,1,39,orange,orange,cong,1,472
27,male,meditate,1,40,stapler,stapler,cong,1,541
27,male,meditate,1,41,lemon,lemon,cong,1,523
27,male,meditate,1,42,boat,fork,incong,1,685
27,male,meditate,1,43,hammer,bus,incong,1,579
27,male,meditate,1,44,church,church,cong,1,451
27,male,meditate,1,45,cake,carrot,incong,1,560
27,male,meditate,2,46,anchor,church,incong,1,554
27,male,meditate,2,47,ball,anchor,incong,1,542
27,male,meditate,2,48,scissors,moon,incong,1,564
27,male,meditate,2,49,burger,cake,incong,1,582
27,male,meditate,2,50,dog,dog,cong,1,507
27,male,meditate,2,51,shoe,shoe,cong,1,567
27,male,meditate,2,52,boat,boat,cong,1,497
27,male,meditate,2,53,moon,plate,incong,1,581
27,male,meditate,2,54,cup,cup,cong,1,625
27,male,meditate,2,55,car,car,cong,1,454
27,male,meditate,2,56,cat,spoon,incong,1,561
27,male,meditate,2,57,ball,ball,cong,1,473
27,male,meditate,2,58,hammer,hammer,cong,1,620
27,male,meditate,2,59,pizza,pizza,cong,1,488
27,male,meditate,2,60,lemon,tree,incong,1,604
28,male,meditate,1,1,anchor,pizza,incong,1,666
28,male,meditate,1,2,dog,dog,cong,1,465
28,male,meditate,1,3,dog,star,incong,1,794
28,male,meditate,1,4,spoon,spoon,cong,1,491
28,male,meditate,1,5,hammer,hammer,cong,1,500
28,male,meditate,1,6,cake,cake,cong,1,487
28,male,meditate,1,7,fork,fork,cong,1,487
28,male,meditate,1,8,bus,bus,cong,1,500
28,male,meditate,1,9,cat,cat,cong,1,472
28,male,meditate,1,10,anchor,anchor,cong,1,509
28,male,meditate,1,11,cup,cup,cong,1,459
28,male,meditate,1,12,car,car,cong,1,475
28,male,meditate,1,13,cherry,drill,incong,1,679
28,male,meditate,1,14,scissors,scissors,cong,1,467
28,male,meditate,1,15,church,church,cong,1,516
28,male,meditate,2,16,orange,orange,cong,1,531
28,male,meditate,2,17,plate,hat,incong,1,758
28,male,meditate,2,18,star,moon,incong,1,762
28,male,meditate,2,19,horse,shoe,incong,1,792
28,male,meditate,2,20,drill,fork,incong,1,711
28,male,meditate,2,21,burger,burger,cong,1,514
28,male,meditate,2,22,hammer,cherry,incong,1,785
28,male,meditate,2,23,boat,ball,incong,1,673
28,male,meditate,2,24,hat,bus,incong,1,714
28,male,meditate,2,25,cherry,cherry,cong,1,536
28,male,meditate,2,26,pizza,hammer,incong,1,685
28,male,meditate,2,27,hat,hat,cong,1,559
28,male,meditate,2,28,moon,moon,cong,0,464
28,male,meditate,2,29,ball,ball,cong,1,568
28,male,meditate,2,30,stapler,stapler,cong,1,574
28,male,meditate,1,31,shoe,shoe,cong,1,548
28,male,meditate,1,32,car,church,incong,1,663
28,male,meditate,1,33,carrot,cake,incong,0,725
28,male,meditate,1,34,ball,lemon,incong,1,672
28,male,meditate,1,35,boat,boat,cong,1,575
28,male,meditate,1,36,shoe,carrot,incong,1,707
28,male,meditate,1,37,scissors,stapler,incong,1,792
28,male,meditate,1,38,spoon,dog,incong,1,885
28,male,meditate,1,39,stapler,cat,incong,1,671
28,male,meditate,1,40,cat,orange,incong,1,664
28,male,meditate,1,41,moon,apple,incong,1,682
28,male,meditate,1,42,bus,scissors,incong,1,790
28,male,meditate,1,43,cup,cup,cong,1,696
28,male,meditate,1,44,orange,horse,incong,1,736
28,male,meditate,1,45,fork,spoon,incong,1,742
28,male,meditate,2,46,burger,tree,incong,1,748
28,male,meditate,2,47,drill,drill,cong,1,475
28,male,meditate,2,48,plate,plate,cong,1,590
28,male,meditate,2,49,apple,plate,incong,1,766
28,male,meditate,2,50,carrot,carrot,cong,1,547
28,male,meditate,2,51,lemon,boat,incong,1,918
28,male,meditate,2,52,pizza,pizza,cong,1,525
28,male,meditate,2,53,horse,horse,cong,1,483
28,male,meditate,2,54,apple,apple,cong,1,482
28,male,meditate,2,55,church,anchor,incong,1,746
28,male,meditate,2,56,tree,tree,cong,0,541
28,male,meditate,2,57,star,star,cong,1,476
28,male,meditate,2,58,tree,car,incong,1,722
28,male,meditate,2,59,lemon,lemon,cong,1,474
28,male,meditate,2,60,cake,burger,incong,1,740
29,male,meditate,1,1,horse,star,incong,1,547
29,male,meditate,1,2,stapler,stapler,cong,0,593
29,male,meditate,1,3,church,cat,incong,1,532
29,male,meditate,1,4,cake,cake,cong,1,551
29,male,meditate,1,5,boat,car,incong,1,486
29,male,meditate,1,6,burger,burger,cong,1,527
29,male,meditate,1,7,bus,lemon,incong,1,471
29,male,meditate,1,8,shoe,carrot,incong,1,471
29,male,meditate,1,9,tree,drill,incong,1,566
29,male,meditate,1,10,anchor,orange,incong,1,552
29,male,meditate,1,11,pizza,dog,incong,0,465
29,male,meditate,1,12,fork,ball,incong,1,615
29,male,meditate,1,13,cherry,moon,incong,1,529
29,male,meditate,1,14,apple,bus,incong,1,532
29,male,meditate,1,15,ball,ball,cong,1,529
29,male,meditate,2,16,car,car,cong,1,516
29,male,meditate,2,17,spoon,spoon,cong,1,607
29,male,meditate,2,18,apple,apple,cong,1,526
29,male,meditate,2,19,cherry,cherry,cong,1,574
29,male,meditate,2,20,burger,burger,cong,1,539
29,male,meditate,2,21,fork,fork,cong,1,553
29,male,meditate,2,22,hammer,apple,incong,1,523
29,male,meditate,2,23,lemon,lemon,cong,1,533
29,male,meditate,2,24,bus,bus,cong,1,547
29,male,meditate,2,25,orange,orange,cong,0,535
29,male,meditate,2,26,plate,plate,cong,1,522
29,male,meditate,2,27,carrot,carrot,cong,1,502
29,male,meditate,2,28,cat,tree,incong,1,459
29,male,meditate,2,29,moon,moon,cong,1,530
29,male,meditate,2,30,plate,scissors,incong,1,654
29,male,meditate,1,31,orange,plate,incong,0,494
29,male,meditate,1,32,dog,hammer,incong,1,525
29,male,meditate,1,33,scissors,cherry,incong,1,517
29,male,meditate,1,34,spoon,spoon,cong,1,545
29,male,meditate,1,35,star,church,incong,1,536
29,male,meditate,1,36,hammer,hammer,cong,1,537
29,male,meditate,1,37,scissors,scissors,cong,1,521
29,male,meditate,1,38,tree,tree,cong,1,541
29,male,meditate,1,39,moon,stapler,incong,1,472
29,male,meditate,1,40,stapler,hat,incong,1,488
29,male,meditate,1,41,dog,dog,cong,1,561
29,male,meditate,1,42,drill,cake,incong,1,477
29,male,meditate,1,43,pizza,pizza,cong,1,523
29,male,meditate,1,44,carrot,pizza,incong,0,550
29,male,meditate,1,45,ball,fork,incong,1,579
29,male,meditate,2,46,horse,horse,cong,1,562
29,male,meditate,2,47,hat,hat,cong,1,548
29,male,meditate,2,48,drill,drill,cong,1,504
29,male,meditate,2,49,cup,anchor,incong,1,462
29,male,meditate,2,50,lemon,boat,incong,1,463
29,male,meditate,2,51,church,church,cong,1,535
29,male,meditate,2,52,hat,cup,incong,1,579
29,male,meditate,2,53,boat,boat,cong,1,546
29,male,meditate,2,54,shoe,shoe,cong,1,564
29,male,meditate,2,55,star,star,cong,1,576
29,male,meditate,2,56,cup,cup,cong,0,550
29,male,meditate,2,57,anchor,anchor,cong,1,617
29,male,meditate,2,58,cake,shoe,incong,1,534
29,male,meditate,2,59,cat,cat,cong,1,532
29,male,meditate,2,60,car,horse,incong,1,539
30,male,meditate,1,1,cherry,plate,incong,1,400
30,male,meditate,1,2,church,pizza,incong,1,370
30,male,meditate,1,3,fork,fork,cong,1,436
30,male,meditate,1,4,moon,spoon,incong,1,378
30,male,meditate,1,5,anchor,anchor,cong,1,440
30,male,meditate,1,6,cup,dog,incong,1,322
30,male,meditate,1,7,scissors,scissors,cong,1,459
30,male,meditate,1,8,star,cat,incong,1,325
30,male,meditate,1,9,hammer,hammer,cong,1,445
30,male,meditate,1,10,ball,ball,cong,1,441
30,male,meditate,1,11,cat,cake,incong,1,312
30,male,meditate,1,12,car,car,cong,1,517
30,male,meditate,1,13,shoe,shoe,cong,1,378
30,male,meditate,1,14,lemon,lemon,cong,1,510
30,male,meditate,1,15,church,church,cong,1,460
30,male,meditate,2,16,cat,cat,cong,1,448
30,male,meditate,2,17,apple,hat,incong,0,407
30,male,meditate,2,18,burger,burger,cong,1,511
30,male,meditate,2,19,ball,star,incong,1,418
30,male,meditate,2,20,bus,carrot,incong,1,328
30,male,meditate,2,21,cake,cake,cong,1,475
30,male,meditate,2,22,horse,horse,cong,1,484
30,male,meditate,2,23,car,fork,incong,0,310
30,male,meditate,2,24,boat,cherry,incong,1,368
30,male,meditate,2,25,scissors,bus,incong,1,309
30,male,meditate,2,26,carrot,apple,incong,0,324
30,male,meditate,2,27,cherry,cherry,cong,0,482
30,male,meditate,2,28,dog,drill,incong,1,428
30,male,meditate,2,29,orange,horse,incong,1,426
30,male,meditate,2,30,star,star,cong,1,434
30,male,meditate,1,31,hat,hat,cong,1,479
30,male,meditate,1,32,anchor,boat,incong,1,336
30,male,meditate,1,33,moon,moon,cong,1,451
30,male,meditate,1,34,plate,stapler,incong,1,328
30,male,meditate,1,35,plate,plate,cong,1,477
30,male,meditate,1,36,lemon,tree,incong,1,442
30,male,meditate,1,37,tree,tree,cong,1,467
30,male,meditate,1,38,spoon,burger,incong,1,414
30,male,meditate,1,39,cake,anchor,incong,1,309
30,male,meditate,1,40,hat,hammer,incong,1,359
30,male,meditate,1,41,drill,church,incong,1,313
30,male,meditate,1,42,spoon,spoon,cong,1,454
30,male,meditate,1,43,carrot,carrot,cong,1,491
30,male,meditate,1,44,pizza,pizza,cong,1,520
30,male,meditate,1,45,stapler,scissors,incong,1,317
30,male,meditate,2,46,dog,dog,cong,1,438
30,male,meditate,2,47,shoe,shoe,cong,1,508
30,male,meditate,2,48,horse,lemon,incong,1,481
30,male,meditate,2,49,cup,cup,cong,1,460
30,male,meditate,2,50,apple,apple,cong,1,459
30,male,meditate,2,51,bus,bus,cong,1,444
30,male,meditate,2,52,orange,orange,cong,1,469
30,male,meditate,2,53,boat,boat,cong,1,477
30,male,meditate,2,54,drill,drill,cong,1,480
30,male,meditate,2,55,fork,ball,incong,1,356
30,male,meditate,2,56,hammer,cup,incong,1,331
30,male,meditate,2,57,pizza,car,incong,1,325
30,male,meditate,2,58,stapler,stapler,cong,1,455
30,male,meditate,2,59,burger,moon,incong,1,321
30,male,meditate,2,60,tree,orange,incong,1,398
31,male,meditate,1,1,stapler,shoe,incong,1,605
31,male,meditate,1,2,lemon,lemon,cong,1,522
31,male,meditate,1,3,tree,tree,cong,1,464
31,male,meditate,1,4,orange,orange,cong,1,628
31,male,meditate,1,5,scissors,scissors,cong,1,476
31,male,meditate,1,6,plate,ball,incong,1,589
31,male,meditate,1,7,moon,cat,incong,1,653
31,male,meditate,1,8,horse,horse,cong,1,580
31,male,meditate,1,9,plate,plate,cong,1,500
31,male,meditate,1,10,hat,hat,cong,1,468
31,male,meditate,1,11,carrot,carrot,cong,1,473
31,male,meditate,1,12,carrot,anchor,incong,1,678
31,male,meditate,1,13,burger,burger,cong,1,547
31,male,meditate,1,14,bus,bus,cong,1,467
31,male,meditate,1,15,burger,church,incong,1,578
31,male,meditate,2,16,bus,hammer,incong,1,601
31,male,meditate,2,17,boat,car,incong,1,645
31,male,meditate,2,18,drill,cake,incong,1,538
31,male,meditate,2,19,cherry,cherry,cong,1,465
31,male,meditate,2,20,cake,dog,incong,1,646
31,male,meditate,2,21,star,tree,incong,1,694
31,male,meditate,2,22,cup,lemon,incong,1,653
31,male,meditate,2,23,church,church,cong,1,475
31,male,meditate,2,24,church,star,incong,1,556
31,male,meditate,2,25,hammer,hammer,cong,1,477
31,male,meditate,2,26,orange,spoon,incong,1,597
31,male,meditate,2,27,anchor,drill,incong,1,551
31,male,meditate,2,28,fork,stapler,incong,1,556
31,male,meditate,2,29,car,car,cong,1,594
31,male,meditate,2,30,fork,fork,cong,1,541
31,male,meditate,1,31,spoon,scissors,incong,1,657
31,male,meditate,1,32,spoon,spoon,cong,1,616
31,male,meditate,1,33,cat,fork,incong,1,586
31,male,meditate,1,34,hat,orange,incong,1,564
31,male,meditate,1,35,shoe,shoe,cong,1,529
31,male,meditate,1,36,drill,drill,cong,1,476
31,male,meditate,1,37,stapler,stapler,cong,1,550
31,male,meditate,1,38,pizza,plate,incong,1,607
31,male,meditate,1,39,star,star,cong,1,466
31,male,meditate,1,40,anchor,anchor,cong,1,488
31,male,meditate,1,41,dog,boat,incong,1,703
31,male,meditate,1,42,apple,burger,incong,1,601
31,male,meditate,1,43,horse,cup,incong,1,610
31,male,meditate,1,44,cake,cake,cong,0,499
31,male,meditate,1,45,boat,boat,cong,1,596
31,male,meditate,2,46,pizza,pizza,cong,1,467
31,male,meditate,2,47,moon,moon,cong,1,589
31,male,meditate,2,48,hammer,carrot,incong,1,584
31,male,meditate,2,49,ball,ball,cong,1,491
31,male,meditate,2,50,cat,cat,cong,1,543
31,male,meditate,2,51,shoe,moon,incong,1,700
31,male,meditate,2,52,car,bus,incong,1,658
31,male,meditate,2,53,ball,apple,incong,1,853
31,male,meditate,2,54,apple,apple,cong,1,483
31,male,meditate,2,55,cup,cup,cong,1,476
31,male,meditate,2,56,cherry,pizza,incong,1,555
31,male,meditate,2,57,scissors,hat,incong,1,584
31,male,meditate,2,58,dog,dog,cong,1,524
31,male,meditate,2,59,tree,cherry,incong,1,648
31,male,meditate,2,60,lemon,horse,incong,1,653
32,male,meditate,1,1,apple,apple,cong,1,500
32,male,meditate,1,2,star,star,cong,1,506
32,male,meditate,1,3,moon,drill,incong,0,510
32,male,meditate,1,4,boat,boat,cong,1,529
32,male,meditate,1,5,plate,plate,cong,1,630
32,male,meditate,1,6,fork,fork,cong,1,498
32,male,meditate,1,7,cherry,plate,incong,1,592
32,male,meditate,1,8,car,spoon,incong,1,514
32,male,meditate,1,9,bus,burger,incong,1,579
32,male,meditate,1,10,boat,boat,cong,1,504
32,male,meditate,1,11,cake,scissors,incong,1,515
32,male,meditate,1,12,anchor,anchor,cong,1,526
32,male,meditate,1,13,cup,anchor,incong,1,507
32,male,meditate,1,14,drill,cat,incong,0,634
32,male,meditate,1,15,moon,moon,cong,1,528
32,male,meditate,2,16,apple,cake,incong,1,495
32,male,meditate,2,17,dog,dog,cong,1,604
32,male,meditate,2,18,spoon,spoon,cong,1,539
32,male,meditate,2,19,cherry,cherry,cong,1,498
32,male,meditate,2,20,hat,hat,cong,1,520
32,male,meditate,2,21,hammer,hammer,cong,1,509
32,male,meditate,2,22,lemon,lemon,cong,1,544
32,male,meditate,2,23,carrot,carrot,cong,1,516
32,male,meditate,2,24,church,church,cong,1,500
32,male,meditate,2,25,orange,orange,cong,1,522
32,male,meditate,2,26,cat,shoe,incong,1,495
32,male,meditate,2,27,horse,horse,cong,1,597
32,male,meditate,2,28,lemon,fork,incong,1,612
32,male,meditate,2,29,car,car,cong,1,584
32,male,meditate,2,30,burger,pizza,incong,1,531
32,male,meditate,1,31,tree,carrot,incong,1,595
32,male,meditate,1,32,stapler,car,incong,1,620
32,male,meditate,1,33,scissors,scissors,cong,1,544
32,male,meditate,1,34,drill,drill,cong,1,595
32,male,meditate,1,35,fork,dog,incong,1,545
32,male,meditate,1,36,hat,star,incong,1,662
32,male,meditate,1,37,tree,tree,cong,1,566
32,male,meditate,1,38,cup,cup,cong,1,512
32,male,meditate,1,39,cake,cake,cong,1,539
32,male,meditate,1,40,shoe,shoe,cong,1,520
32,male,meditate,1,41,church,cup,incong,1,554
32,male,meditate,1,42,anchor,cherry,incong,1,540
32,male,meditate,1,43,pizza,pizza,cong,1,528
32,male,meditate,1,44,plate,bus,incong,1,495
32,male,meditate,1,45,orange,ball,incong,1,527
32,male,meditate,2,46,ball,ball,cong,1,562
32,male,meditate,2,47,spoon,church,incong,1,511
32,male,meditate,2,48,horse,horse,cong,1,502
32,male,meditate,2,49,dog,moon,incong,1,526
32,male,meditate,2,50,bus,bus,cong,1,552
32,male,meditate,2,51,cat,cat,cong,1,498
32,male,meditate,2,52,star,orange,incong,1,545
32,male,meditate,2,53,stapler,stapler,cong,1,517
32,male,meditate,2,54,scissors,lemon,incong,1,546
32,male,meditate,2,55,hammer,hammer,cong,1,507
32,male,meditate,2,56,shoe,hat,incong,1,509
32,male,meditate,2,57,pizza,tree,incong,0,523
32,male,meditate,2,58,burger,burger,cong,1,552
32,male,meditate,2,59,ball,stapler,incong,1,535
32,male,meditate,2,60,carrot,apple,incong,1,496
33,male,meditate,1,1,cat,boat,incong,1,553
33,male,meditate,1,2,star,star,cong,1,471
33,male,meditate,1,3,car,car,cong,1,477
33,male,meditate,1,4,dog,dog,cong,1,499
33,male,meditate,1,5,apple,bus,incong,0,433
33,male,meditate,1,6,cup,star,incong,1,451
33,male,meditate,1,7,stapler,stapler,cong,1,450
33,male,meditate,1,8,pizza,pizza,cong,1,512
33,male,meditate,1,9,scissors,scissors,cong,1,451
33,male,meditate,1,10,cherry,tree,incong,1,423
33,male,meditate,1,11,stapler,fork,incong,1,485
33,male,meditate,1,12,boat,hat,incong,1,543
33,male,meditate,1,13,orange,orange,cong,1,506
33,male,meditate,1,14,shoe,plate,incong,1,556
33,male,meditate,1,15,horse,horse,cong,1,452
33,male,meditate,2,16,drill,drill,cong,1,450
33,male,meditate,2,17,drill,apple,incong,1,505
33,male,meditate,2,18,hat,hat,cong,1,460
33,male,meditate,2,19,hammer,car,incong,0,473
33,male,meditate,2,20,moon,pizza,incong,1,523
33,male,meditate,2,21,star,stapler,incong,0,424
33,male,meditate,2,22,boat,boat,cong,1,484
33,male,meditate,2,23,cup,cup,cong,1,468
33,male,meditate,2,24,plate,plate,cong,1,445
33,male,meditate,2,25,burger,cherry,incong,1,616
33,male,meditate,2,26,carrot,drill,incong,1,481
33,male,meditate,2,27,scissors,spoon,incong,1,423
33,male,meditate,2,28,spoon,spoon,cong,1,467
33,male,meditate,2,29,anchor,anchor,cong,1,454
33,male,meditate,2,30,shoe,shoe,cong,1,475
33,male,meditate,1,31,horse,moon,incong,1,507
33,male,meditate,1,32,cherry,cherry,cong,0,488
33,male,meditate,1,33,bus,anchor,incong,1,436
33,male,meditate,1,34,orange,ball,incong,1,418
33,male,meditate,1,35,spoon,scissors,incong,1,434
33,male,meditate,1,36,cake,cake,cong,1,457
33,male,meditate,1,37,ball,ball,cong,1,464
33,male,meditate,1,38,car,cake,incong,1,458
33,male,meditate,1,39,ball,lemon,incong,1,500
33,male,meditate,1,40,church,shoe,incong,1,475
33,male,meditate,1,41,lemon,carrot,incong,1,504
33,male,meditate,1,42,lemon,lemon,cong,1,450
33,male,meditate,1,43,church,church,cong,1,471
33,male,meditate,1,44,burger,burger,cong,1,494
33,male,meditate,1,45,anchor,hammer,incong,1,431
33,male,meditate,2,46,fork,burger,incong,1,430
33,male,meditate,2,47,apple,apple,cong,1,645
33,male,meditate,2,48,fork,fork,cong,1,477
33,male,meditate,2,49,cake,cat,incong,1,471
33,male,meditate,2,50,dog,horse,incong,1,420
33,male,meditate,2,51,tree,tree,cong,1,447
33,male,meditate,2,52,carrot,carrot,cong,1,479
33,male,meditate,2,53,hammer,hammer,cong,0,521
33,male,meditate,2,54,tree,church,incong,1,429
33,male,meditate,2,55,cat,cat,cong,1,549
33,male,meditate,2,56,hat,cup,incong,0,510
33,male,meditate,2,57,moon,moon,cong,1,538
33,male,meditate,2,58,plate,orange,incong,1,488
33,male,meditate,2,59,pizza,dog,incong,0,470
33,male,meditate,2,60,bus,bus,cong,1,450
34,male,meditate,1,1,hat,hat,cong,1,540
34,male,meditate,1,2,drill,drill,cong,1,545
34,male,meditate,1,3,apple,apple,cong,1,460
34,male,meditate,1,4,orange,plate,incong,1,376
34,male,meditate,1,5,hat,hammer,incong,0,324
34,male,meditate,1,6,spoon,spoon,cong,1,503
34,male,meditate,1,7,star,drill,incong,1,353
34,male,meditate,1,8,pizza,pizza,cong,1,456
34,male,meditate,1,9,shoe,shoe,cong,1,471
34,male,meditate,1,10,cherry,cherry,cong,1,482
34,male,meditate,1,11,plate,spoon,incong,1,433
34,male,meditate,1,12,shoe,tree,incong,1,382
34,male,meditate,1,13,apple,pizza,incong,1,333
34,male,meditate,1,14,burger,horse,incong,1,445
34,male,meditate,1,15,ball,ball,cong,1,505
34,male,meditate,2,16,carrot,stapler,incong,1,491
34,male,meditate,2,17,car,car,cong,1,663
34,male,meditate,2,18,cat,cat,cong,1,494
34,male,meditate,2,19,church,church,cong,1,474
34,male,meditate,2,20,stapler,burger,incong,1,522
34,male,meditate,2,21,hammer,hammer,cong,1,595
34,male,meditate,2,22,fork,fork,cong,1,375
34,male,meditate,2,23,boat,boat,cong,1,451
34,male,meditate,2,24,dog,boat,incong,1,311
34,male,meditate,2,25,scissors,orange,incong,1,370
34,male,meditate,2,26,anchor,church,incong,1,324
34,male,meditate,2,27,tree,shoe,incong,1,375
34,male,meditate,2,28,cup,ball,incong,1,343
34,male,meditate,2,29,bus,bus,cong,1,506
34,male,meditate,2,30,plate,plate,cong,1,479
34,male,meditate,1,31,burger,burger,cong,1,544
34,male,meditate,1,32,scissors,scissors,cong,1,499
34,male,meditate,1,33,boat,star,incong,0,426
34,male,meditate,1,34,ball,car,incong,1,343
34,male,meditate,1,35,cake,apple,incong,1,323
34,male,meditate,1,36,cat,cup,incong,0,412
34,male,meditate,1,37,horse,horse,cong,1,555
34,male,meditate,1,38,moon,moon,cong,1,485
34,male,meditate,1,39,star,star,cong,1,505
34,male,meditate,1,40,cherry,hat,incong,1,348
34,male,meditate,1,41,church,dog,incong,1,378
34,male,meditate,1,42,orange,orange,cong,1,596
34,male,meditate,1,43,horse,carrot,incong,1,336
34,male,meditate,1,44,drill,cake,incong,0,342
34,male,meditate,1,45,hammer,anchor,incong,1,507
34,male,meditate,2,46,stapler,stapler,cong,1,555
34,male,meditate,2,47,pizza,moon,incong,1,363
34,male,meditate,2,48,spoon,scissors,incong,1,368
34,male,meditate,2,49,cake,cake,cong,1,494
34,male,meditate,2,50,carrot,carrot,cong,1,475
34,male,meditate,2,51,tree,tree,cong,1,471
34,male,meditate,2,52,cup,cup,cong,1,492
34,male,meditate,2,53,fork,fork,cong,1,446
34,male,meditate,2,54,dog,dog,cong,1,460
34,male,meditate,2,55,moon,lemon,incong,1,339
34,male,meditate,2,56,lemon,bus,incong,1,355
34,male,meditate,2,57,car,cat,incong,1,436
34,male,meditate,2,58,lemon,lemon,cong,1,471
34,male,meditate,2,59,bus,cherry,incong,0,344
34,male,meditate,2,60,anchor,anchor,cong,1,519
35,male,meditate,1,1,hat,dog,incong,1,439
35,male,meditate,1,2,scissors,burger,incong,1,411
35,male,meditate,1,3,bus,bus,cong,1,452
35,male,meditate,1,4,hammer,hammer,cong,1,434
35,male,meditate,1,5,drill,lemon,incong,1,500
35,male,meditate,1,6,hammer,church,incong,1,556
35,male,meditate,1,7,hat,hat,cong,1,490
35,male,meditate,1,8,orange,moon,incong,1,647
35,male,meditate,1,9,boat,boat,cong,1,474
35,male,meditate,1,10,anchor,anchor,cong,0,473
35,male,meditate,1,11,burger,burger,cong,1,442
35,male,meditate,1,12,star,drill,incong,1,403
35,male,meditate,1,13,cup,cup,cong,1,498
35,male,meditate,1,14,shoe,hammer,incong,1,452
35,male,meditate,1,15,burger,horse,incong,1,520
35,male,meditate,2,16,ball,ball,cong,1,534
35,male,meditate,2,17,lemon,lemon,cong,1,538
35,male,meditate,2,18,horse,horse,cong,1,501
35,male,meditate,2,19,moon,moon,cong,1,492
35,male,meditate,2,20,dog,dog,cong,1,549
35,male,meditate,2,21,moon,plate,incong,1,541
35,male,meditate,2,22,ball,fork,incong,1,478
35,male,meditate,2,23,apple,cherry,incong,1,432
35,male,meditate,2,24,tree,tree,cong,1,519
35,male,meditate,2,25,car,car,cong,1,450
35,male,meditate,2,26,scissors,scissors,cong,1,566
35,male,meditate,2,27,church,stapler,incong,1,542
35,male,meditate,2,28,cherry,pizza,incong,1,431
35,male,meditate,2,29,pizza,pizza,cong,1,476
35,male,meditate,2,30,cat,carrot,incong,1,413
35,male,meditate,1,31,spoon,spoon,cong,1,461
35,male,meditate,1,32,dog,anchor,incong,1,433
35,male,meditate,1,33,cup,orange,incong,1,473
35,male,meditate,1,34,cherry,cherry,cong,1,597
35,male,meditate,1,35,star,star,cong,1,484
35,male,meditate,1,36,cake,car,incong,1,443
35,male,meditate,1,37,cat,cat,cong,1,444
35,male,meditate,1,38,fork,fork,cong,1,453
35,male,meditate,1,39,carrot,carrot,cong,1,419
35,male,meditate,1,40,lemon,shoe,incong,1,556
35,male,meditate,1,41,fork,tree,incong,1,452
35,male,meditate,1,42,pizza,hat,incong,1,418
35,male,meditate,1,43,tree,boat,incong,1,522
35,male,meditate,1,44,orange,orange,cong,1,502
35,male,meditate,1,45,bus,star,incong,1,478
35,male,meditate,2,46,shoe,shoe,cong,1,420
35,male,meditate,2,47,horse,bus,incong,1,477
35,male,meditate,2,48,car,scissors,incong,1,535
35,male,meditate,2,49,cake,cake,cong,1,468
35,male,meditate,2,50,apple,apple,cong,1,414
35,male,meditate,2,51,anchor,apple,incong,1,412
35,male,meditate,2,52,stapler,cup,incong,1,471
35,male,meditate,2,53,spoon,cake,incong,1,540
35,male,meditate,2,54,plate,plate,cong,1,514
35,male,meditate,2,55,drill,drill,cong,1,420
35,male,meditate,2,56,carrot,cat,incong,1,471
35,male,meditate,2,57,church,church,cong,1,442
35,male,meditate,2,58,stapler,stapler,cong,0,505
35,male,meditate,2,59,plate,spoon,incong,1,532
35,male,meditate,2,60,boat,ball,incong,1,513
36,male,meditate,1,1,orange,plate,incong,1,411
36,male,meditate,1,2,star,drill,incong,1,559
36,male,meditate,1,3,bus,star,incong,1,468
36,male,meditate,1,4,boat,boat,cong,1,439
36,male,meditate,1,5,stapler,stapler,cong,1,444
36,male,meditate,1,6,star,star,cong,1,509
36,male,meditate,1,7,ball,cup,incong,1,470
36,male,meditate,1,8,cat,cat,cong,1,482
36,male,meditate,1,9,tree,tree,cong,1,460
36,male,meditate,1,10,moon,moon,cong,1,437
36,male,meditate,1,11,hammer,anchor,incong,1,472
36,male,meditate,1,12,church,church,cong,1,444
36,male,meditate,1,13,pizza,pizza,cong,1,552
36,male,meditate,1,14,plate,plate,cong,1,472
36,male,meditate,1,15,shoe,moon,incong,1,526
36,male,meditate,2,16,apple,apple,cong,1,451
36,male,meditate,2,17,lemon,lemon,cong,1,470
36,male,meditate,2,18,burger,burger,cong,1,495
36,male,meditate,2,19,apple,burger,incong,1,431
36,male,meditate,2,20,horse,cherry,incong,1,513
36,male,meditate,2,21,spoon,pizza,incong,1,423
36,male,meditate,2,22,fork,fork,cong,1,495
36,male,meditate,2,23,anchor,anchor,cong,1,502
36,male,meditate,2,24,orange,orange,cong,1,456
36,male,meditate,2,25,horse,horse,cong,1,485
36,male,meditate,2,26,cup,ball,incong,1,419
36,male,meditate,2,27,cake,cake,cong,1,457
36,male,meditate,2,28,cup,cup,cong,1,430
36,male,meditate,2,29,stapler,shoe,incong,1,460
36,male,meditate,2,30,moon,apple,incong,1,579
36,male,meditate,1,31,church,orange,incong,1,485
36,male,meditate,1,32,cat,carrot,incong,1,449
36,male,meditate,1,33,carrot,carrot,cong,1,518
36,male,meditate,1,34,drill,stapler,incong,1,562
36,male,meditate,1,35,spoon,spoon,cong,1,441
36,male,meditate,1,36,lemon,car,incong,1,519
36,male,meditate,1,37,ball,ball,cong,1,432
36,male,meditate,1,38,hat,cat,incong,1,574
36,male,meditate,1,39,carrot,scissors,incong,1,469
36,male,meditate,1,40,fork,tree,incong,1,456
36,male,meditate,1,41,car,car,cong,1,508
36,male,meditate,1,42,cherry,hammer,incong,1,473
36,male,meditate,1,43,cherry,cherry,cong,1,464
36,male,meditate,1,44,anchor,lemon,incong,0,458
36,male,meditate,1,45,plate,fork,incong,1,449
36,male,meditate,2,46,drill,drill,cong,1,467
36,male,meditate,2,47,boat,church,incong,1,470
36,male,meditate,2,48,hammer,hammer,cong,1,493
36,male,meditate,2,49,bus,bus,cong,1,460
36,male,meditate,2,50,dog,cake,incong,1,468
36,male,meditate,2,51,burger,hat,incong,1,503
36,male,meditate,2,52,pizza,dog,incong,1,448
36,male,meditate,2,53,scissors,scissors,cong,1,497
36,male,meditate,2,54,scissors,bus,incong,1,451
36,male,meditate,2,55,hat,hat,cong,1,490
36,male,meditate,2,56,cake,boat,incong,1,478
36,male,meditate,2,57,shoe,shoe,cong,1,431
36,male,meditate,2,58,dog,dog,cong,1,448
36,male,meditate,2,59,car,spoon,incong,1,515
36,male,meditate,2,60,tree,horse,incong,1,467
37,male,meditate,1,1,scissors,cherry,incong,0,663
37,male,meditate,1,2,plate,orange,incong,1,679
37,male,meditate,1,3,cup,cup,cong,1,434
37,male,meditate,1,4,anchor,car,incong,1,649
37,male,meditate,1,5,cat,cat,cong,1,435
37,male,meditate,1,6,boat,boat,cong,1,510
37,male,meditate,1,7,tree,horse,incong,1,739
37,male,meditate,1,8,fork,fork,cong,1,808
37,male,meditate,1,9,carrot,carrot,cong,1,673
37,male,meditate,1,10,boat,pizza,incong,1,713
37,male,meditate,1,11,apple,apple,cong,1,440
37,male,meditate,1,12,church,bus,incong,1,658
37,male,meditate,1,13,lemon,star,incong,1,749
37,male,meditate,1,14,hammer,cup,incong,1,756
37,male,meditate,1,15,hat,hat,cong,1,528
37,male,meditate,2,16,cake,cake,cong,1,432
37,male,meditate,2,17,stapler,stapler,cong,1,435
37,male,meditate,2,18,orange,hat,incong,1,687
37,male,meditate,2,19,scissors,scissors,cong,1,444
37,male,meditate,2,20,cake,cake,cong,1,682
37,male,meditate,2,21,car,car,cong,1,491
37,male,meditate,2,22,dog,burger,incong,1,658
37,male,meditate,2,23,moon,moon,cong,1,459
37,male,meditate,2,24,shoe,shoe,cong,1,443
37,male,meditate,2,25,shoe,drill,incong,1,756
37,male,meditate,2,26,tree,tree,cong,1,481
37,male,meditate,2,27,dog,dog,cong,1,479
37,male,meditate,2,28,orange,orange,cong,1,488
37,male,meditate,2,29,spoon,spoon,cong,1,483
37,male,meditate,2,30,bus,shoe,incong,1,731
37,male,meditate,1,31,moon,cat,incong,1,650
37,male,meditate,1,32,hat,scissors,incong,1,785
37,male,meditate,1,33,cherry,cherry,cong,1,453
37,male,meditate,1,34,lemon,lemon,cong,1,482
37,male,meditate,1,35,anchor,anchor,cong,1,441
37,male,meditate,1,36,pizza,pizza,cong,1,491
37,male,meditate,1,37,horse,horse,cong,1,497
37,male,meditate,1,38,pizza,church,incong,1,732
37,male,meditate,1,39,ball,lemon,incong,1,807
37,male,meditate,1,40,carrot,carrot,cong,1,489
37,male,meditate,1,41,fork,fork,cong,0,622
37,male,meditate,1,42,cherry,boat,incong,1,729
37,male,meditate,1,43,burger,tree,incong,1,798
37,male,meditate,1,44,spoon,ball,incong,1,713
37,male,meditate,1,45,plate,plate,cong,1,471
37,male,meditate,2,46,cat,dog,incong,1,672
37,male,meditate,2,47,car,anchor,incong,1,653
37,male,meditate,2,48,apple,moon,incong,1,733
37,male,meditate,2,49,bus,bus,cong,1,437
37,male,meditate,2,50,stapler,hammer,incong,1,656
37,male,meditate,2,51,drill,spoon,incong,1,811
37,male,meditate,2,52,horse,apple,incong,1,682
37,male,meditate,2,53,cup,plate,incong,1,723
37,male,meditate,2,54,star,stapler,incong,1,733
37,male,meditate,2,55,ball,ball,cong,1,428
37,male,meditate,2,56,drill,drill,cong,1,482
37,male,meditate,2,57,burger,burger,cong,1,452
37,male,meditate,2,58,star,star,cong,1,518
37,male,meditate,2,59,church,church,cong,1,479
