subj,sex,medit,block,trial,word,pic,congru,acc,rt
1,male,meditate,1,1,boat,apple,incong,1,354
1,male,meditate,1,2,bus,bus,cong,1,419
1,male,meditate,1,3,stapler,cherry,incong,1,346
1,male,meditate,1,4,burger,scissors,incong,0,411
1,male,meditate,1,5,orange,cup,incong,1,319
1,male,meditate,1,6,church,church,cong,1,500
1,male,meditate,1,7,lemon,lemon,cong,1,515
1,male,meditate,1,8,carrot,carrot,cong,1,613
1,male,meditate,1,9,pizza,lemon,incong,1,418
1,male,meditate,1,10,cake,cake,cong,1,437
1,male,meditate,1,11,pizza,pizza,cong,1,534
1,male,meditate,1,12,cup,cup,cong,1,554
1,male,meditate,1,13,apple,apple,cong,1,470
1,male,meditate,1,14,plate,pizza,incong,1,450
1,male,meditate,1,15,church,hat,incong,1,338
1,male,meditate,1,16,stapler,stapler,cong,1,431
1,male,meditate,1,17,hammer,hammer,cong,1,509
1,male,meditate,1,18,star,star,cong,0,465
1,male,meditate,1,19,hat,hat,cong,1,473
1,male,meditate,1,20,boat,boat,cong,1,515
1,male,meditate,1,21,moon,moon,cong,1,454
1,male,meditate,1,22,cup,carrot,incong,1,397
1,male,meditate,1,23,spoon,spoon,cong,1,505
1,male,meditate,1,24,scissors,tree,incong,1,318
1,male,meditate,1,25,shoe,shoe,cong,1,506
1,male,meditate,1,26,moon,drill,incong,1,389
1,male,meditate,1,27,scissors,scissors,cong,1,472
1,male,meditate,1,28,lemon,fork,incong,1,384
1,male,meditate,1,29,cherry,burger,incong,1,425
1,male,meditate,1,30,shoe,bus,incong,1,421
1,male,meditate,2,31,bus,orange,incong,1,291
1,male,meditate,2,32,car,cat,incong,1,279
1,male,meditate,2,33,apple,moon,incong,1,298
1,male,meditate,2,34,horse,horse,cong,1,460
1,male,meditate,2,35,horse,anchor,incong,1,405
1,male,meditate,2,36,fork,dog,incong,1,424
1,male,meditate,2,37,cat,cat,cong,1,486
1,male,meditate,2,38,spoon,boat,incong,0,372
1,male,meditate,2,39,carrot,ball,incong,1,484
1,male,meditate,2,40,ball,plate,incong,1,275
1,male,meditate,2,41,star,stapler,incong,1,450
1,male,meditate,2,42,cake,horse,incong,1,392
1,male,meditate,2,43,cat,cake,incong,1,318
1,male,meditate,2,44,tree,church,incong,1,413
1,male,meditate,2,45,dog,dog,cong,1,399
1,male,meditate,2,46,hat,car,incong,1,318
1,male,meditate,2,47,orange,orange,cong,1,463
1,male,meditate,2,48,burger,burger,cong,1,445
1,male,meditate,2,49,hammer,shoe,incong,1,336
1,male,meditate,2,50,plate,plate,cong,1,532
1,male,meditate,2,51,tree,tree,cong,1,493
1,male,meditate,2,52,car,car,cong,1,517
1,male,meditate,2,53,cherry,cherry,cong,0,490
1,male,meditate,2,54,anchor,anchor,cong,1,471
1,male,meditate,2,55,anchor,hammer,incong,1,364
1,male,meditate,2,56,drill,drill,cong,0,578
1,male,meditate,2,57,dog,spoon,incong,1,322
1,male,meditate,2,58,ball,ball,cong,1,409
1,male,meditate,2,59,fork,fork,cong,1,571
1,male,meditate,2,60,drill,star,incong,1,282
2,male,meditate,1,1,spoon,orange,incong,1,511
2,male,meditate,1,2,shoe,shoe,cong,1,511
2,male,meditate,1,3,horse,carrot,incong,1,503
2,male,meditate,1,4,apple,apple,cong,1,500
2,male,meditate,1,5,stapler,stapler,cong,1,526
2,male,meditate,1,6,horse,horse,cong,1,543
2,male,meditate,1,7,carrot,spoon,incong,1,354
2,male,meditate,1,8,pizza,pizza,cong,1,497
2,male,meditate,1,9,burger,ball,incong,1,377
2,male,meditate,1,10,scissors,scissors,cong,1,533
2,male,meditate,1,11,ball,scissors,incong,1,439
2,male,meditate,1,12,cat,dog,incong,1,382
2,male,meditate,1,13,plate,cake,incong,1,385
2,male,meditate,1,14,bus,burger,incong,1,395
2,male,meditate,1,15,lemon,anchor,incong,1,375
2,male,meditate,1,16,cake,moon,incong,1,359
2,male,meditate,1,17,hammer,horse,incong,1,396
2,male,meditate,1,18,car,car,cong,1,492
2,male,meditate,1,19,bus,bus,cong,1,551
2,male,meditate,1,20,lemon,lemon,cong,1,473
2,male,meditate,1,21,cherry,cup,incong,1,403
2,male,meditate,1,22,moon,stapler,incong,1,376
2,male,meditate,1,23,car,hammer,incong,1,344
2,male,meditate,1,24,moon,moon,cong,1,560
2,male,meditate,1,25,boat,boat,cong,1,572
2,male,meditate,1,26,stapler,drill,incong,1,371
2,male,meditate,1,27,cup,cup,cong,1,533
2,male,meditate,1,28,ball,ball,cong,1,519
2,male,meditate,1,29,fork,fork,cong,1,617
2,male,meditate,1,30,orange,orange,cong,0,489
2,male,meditate,2,31,pizza,apple,incong,1,446
2,male,meditate,2,32,star,star,cong,1,416
2,male,meditate,2,33,cat,cat,cong,1,551
2,male,meditate,2,34,plate,plate,cong,1,479
2,male,meditate,2,35,tree,tree,cong,1,654
2,male,meditate,2,36,shoe,boat,incong,1,505
2,male,meditate,2,37,star,fork,incong,1,524
2,male,meditate,2,38,anchor,anchor,cong,1,412
2,male,meditate,2,39,cake,cake,cong,1,469
2,male,meditate,2,40,boat,pizza,incong,1,345
2,male,meditate,2,41,apple,lemon,incong,1,441
2,male,meditate,2,42,dog,dog,cong,1,481
2,male,meditate,2,43,orange,plate,incong,1,327
2,male,meditate,2,44,burger,burger,cong,1,456
2,male,meditate,2,45,scissors,bus,incong,1,512
2,male,meditate,2,46,anchor,church,incong,1,492
2,male,meditate,2,47,hammer,hammer,cong,1,399
2,male,meditate,2,48,spoon,spoon,cong,0,487
2,male,meditate,2,49,drill,drill,cong,1,548
2,male,meditate,2,50,cherry,cherry,cong,1,573
2,male,meditate,2,51,hat,car,incong,1,359
2,male,meditate,2,52,church,cat,incong,1,414
2,male,meditate,2,53,dog,shoe,incong,0,295
2,male,meditate,2,54,fork,cherry,incong,1,340
2,male,meditate,2,55,hat,hat,cong,1,429
2,male,meditate,2,56,cup,star,incong,1,497
2,male,meditate,2,57,church,church,cong,1,555
2,male,meditate,2,58,carrot,carrot,cong,1,431
2,male,meditate,2,59,drill,hat,incong,1,270
2,male,meditate,2,60,tree,tree,cong,1,413
3,male,meditate,1,1,cup,cup,cong,1,574
3,male,meditate,1,2,plate,plate,cong,1,480
3,male,meditate,1,3,carrot,hammer,incong,1,571
3,male,meditate,1,4,scissors,scissors,cong,1,588
3,male,meditate,1,5,cherry,tree,incong,1,581
3,male,meditate,1,6,star,apple,incong,1,730
3,male,meditate,1,7,lemon,anchor,incong,1,651
3,male,meditate,1,8,apple,cup,incong,1,621
3,male,meditate,1,9,dog,dog,cong,1,526
3,male,meditate,1,10,orange,ball,incong,1,663
3,male,meditate,1,11,horse,stapler,incong,1,640
3,male,meditate,1,12,moon,moon,cong,1,530
3,male,meditate,1,13,plate,hat,incong,1,573
3,male,meditate,1,14,cat,cake,incong,1,607
3,male,meditate,1,15,lemon,lemon,cong,1,488
3,male,meditate,1,16,drill,drill,cong,1,519
3,male,meditate,1,17,tree,carrot,incong,1,628
3,male,meditate,1,18,fork,boat,incong,1,562
3,male,meditate,1,19,horse,horse,cong,1,565
3,male,meditate,1,20,hammer,drill,incong,1,624
3,male,meditate,1,21,car,car,cong,1,558
3,male,meditate,1,22,ball,cherry,incong,1,709
3,male,meditate,1,23,drill,bus,incong,1,571
3,male,meditate,1,24,boat,boat,cong,1,553
3,male,meditate,1,25,anchor,scissors,incong,1,608
3,male,meditate,1,26,bus,bus,cong,1,506
3,male,meditate,1,27,cup,burger,incong,1,661
3,male,meditate,1,28,moon,plate,incong,1,710
3,male,meditate,1,29,cake,cake,cong,1,583
3,male,meditate,1,30,shoe,horse,incong,1,563
3,male,meditate,2,31,carrot,carrot,cong,1,455
3,male,meditate,2,32,cake,cat,incong,1,540
3,male,meditate,2,33,stapler,lemon,incong,1,625
3,male,meditate,2,34,pizza,pizza,cong,1,571
3,male,meditate,2,35,spoon,star,incong,1,581
3,male,meditate,2,36,anchor,anchor,cong,1,424
3,male,meditate,2,37,hammer,hammer,cong,1,583
3,male,meditate,2,38,tree,tree,cong,1,448
3,male,meditate,2,39,church,church,cong,1,466
3,male,meditate,2,40,cherry,cherry,cong,1,482
3,male,meditate,2,41,dog,pizza,incong,1,542
3,male,meditate,2,42,boat,spoon,incong,1,663
3,male,meditate,2,43,spoon,spoon,cong,1,437
3,male,meditate,2,44,car,church,incong,1,636
3,male,meditate,2,45,shoe,shoe,cong,1,562
3,male,meditate,2,46,cat,cat,cong,1,445
3,male,meditate,2,47,bus,orange,incong,1,605
3,male,meditate,2,48,fork,fork,cong,1,519
3,male,meditate,2,49,hat,hat,cong,0,552
3,male,meditate,2,50,hat,fork,incong,1,642
3,male,meditate,2,51,orange,orange,cong,1,569
3,male,meditate,2,52,pizza,moon,incong,1,714
3,male,meditate,2,53,burger,burger,cong,1,451
3,male,meditate,2,54,stapler,stapler,cong,1,435
3,male,meditate,2,55,ball,ball,cong,1,459
3,male,meditate,2,56,apple,apple,cong,1,431
3,male,meditate,2,57,burger,shoe,incong,1,647
3,male,meditate,2,58,church,dog,incong,1,537
3,male,meditate,2,59,star,star,cong,1,639
3,male,meditate,2,60,scissors,car,incong,1,567
4,male,meditate,1,1,plate,plate,cong,1,482
4,male,meditate,1,2,hat,hat,cong,1,531
4,male,meditate,1,3,cake,cake,cong,1,483
4,male,meditate,1,4,cat,cat,cong,1,482
4,male,meditate,1,5,fork,hammer,incong,1,692
4,male,meditate,1,6,carrot,hat,incong,0,598
4,male,meditate,1,7,cherry,boat,incong,1,704
4,male,meditate,1,8,boat,boat,cong,1,477
4,male,meditate,1,9,lemon,lemon,cong,0,538
4,male,meditate,1,10,car,car,cong,1,733
4,male,meditate,1,11,ball,cat,incong,1,709
4,male,meditate,1,12,moon,moon,cong,1,479
4,male,meditate,1,13,fork,fork,cong,1,501
4,male,meditate,1,14,bus,apple,incong,1,679
4,male,meditate,1,15,moon,orange,incong,1,612
4,male,meditate,1,16,dog,cake,incong,1,615
4,male,meditate,1,17,anchor,anchor,cong,1,497
4,male,meditate,1,18,cake,plate,incong,1,748
4,male,meditate,1,19,plate,church,incong,1,654
4,male,meditate,1,20,carrot,carrot,cong,1,511
4,male,meditate,1,21,dog,dog,cong,1,489
4,male,meditate,1,22,shoe,horse,incong,1,664
4,male,meditate,1,23,burger,burger,cong,1,492
4,male,meditate,1,24,orange,orange,cong,1,543
4,male,meditate,1,25,tree,bus,incong,1,598
4,male,meditate,1,26,spoon,spoon,cong,1,517
4,male,meditate,1,27,apple,scissors,incong,1,662
4,male,meditate,1,28,shoe,shoe,cong,1,483
4,male,meditate,1,29,cup,shoe,incong,1,615
4,male,meditate,1,30,star,star,cong,1,665
4,male,meditate,2,31,horse,anchor,incong,1,609
4,male,meditate,2,32,pizza,pizza,cong,1,443
4,male,meditate,2,33,pizza,carrot,incong,0,697
4,male,meditate,2,34,cherry,cherry,cong,1,473
4,male,meditate,2,35,bus,bus,cong,1,522
4,male,meditate,2,36,ball,ball,cong,1,453
4,male,meditate,2,37,hammer,lemon,incong,1,611
4,male,meditate,2,38,apple,apple,cong,1,453
4,male,meditate,2,39,lemon,drill,incong,1,860
4,male,meditate,2,40,stapler,cherry,incong,1,565
4,male,meditate,2,41,car,car,cong,1,654
4,male,meditate,2,42,anchor,fork,incong,1,616
4,male,meditate,2,43,orange,cup,incong,1,639
4,male,meditate,2,44,church,dog,incong,1,670
4,male,meditate,2,45,cup,cup,cong,1,428
4,male,meditate,2,46,burger,tree,incong,1,673
4,male,meditate,2,47,scissors,scissors,cong,1,474
4,male,meditate,2,48,drill,ball,incong,1,758
4,male,meditate,2,49,drill,drill,cong,1,511
4,male,meditate,2,50,boat,pizza,incong,0,678
4,male,meditate,2,51,scissors,spoon,incong,1,749
4,male,meditate,2,52,spoon,burger,incong,1,615
4,male,meditate,2,53,hat,moon,incong,1,588
4,male,meditate,2,54,church,church,cong,1,527
4,male,meditate,2,55,hammer,hammer,cong,1,424
4,male,meditate,2,56,tree,tree,cong,0,621
4,male,meditate,2,57,cat,stapler,incong,1,666
4,male,meditate,2,58,stapler,stapler,cong,1,586
4,male,meditate,2,59,horse,horse,cong,1,468
4,male,meditate,2,60,star,star,cong,1,445
5,male,meditate,1,1,fork,cup,incong,1,440
5,male,meditate,1,2,pizza,apple,incong,1,557
5,male,meditate,1,3,drill,drill,cong,1,521
5,male,meditate,1,4,car,moon,incong,1,462
5,male,meditate,1,5,spoon,spoon,cong,1,510
5,male,meditate,1,6,cherry,cherry,cong,1,542
5,male,meditate,1,7,dog,fork,incong,1,577
5,male,meditate,1,8,hammer,star,incong,1,480
5,male,meditate,1,9,ball,ball,cong,0,580
5,male,meditate,1,10,pizza,pizza,cong,1,581
5,male,meditate,1,11,cherry,shoe,incong,1,431
5,male,meditate,1,12,bus,church,incong,1,497
5,male,meditate,1,13,ball,cherry,incong,1,515
5,male,meditate,1,14,anchor,anchor,cong,1,565
5,male,meditate,1,15,spoon,tree,incong,1,469
5,male,meditate,1,16,cake,cake,cong,1,549
5,male,meditate,1,17,boat,boat,cong,1,513
5,male,meditate,1,18,apple,apple,cong,1,551
5,male,meditate,1,19,hat,hat,cong,1,514
5,male,meditate,1,20,stapler,spoon,incong,1,428
5,male,meditate,1,21,carrot,dog,incong,1,462
5,male,meditate,1,22,dog,dog,cong,1,592
5,male,meditate,1,23,apple,car,incong,1,482
5,male,meditate,1,24,burger,burger,cong,1,587
5,male,meditate,1,25,horse,horse,cong,0,573
5,male,meditate,1,26,boat,stapler,incong,1,487
5,male,meditate,1,27,orange,hammer,incong,1,448
5,male,meditate,1,28,horse,anchor,incong,1,526
5,male,meditate,1,29,orange,orange,cong,1,596
5,male,meditate,1,30,hat,horse,incong,1,426
5,male,meditate,2,31,plate,plate,cong,1,707
5,male,meditate,2,32,plate,carrot,incong,1,444
5,male,meditate,2,33,tree,tree,cong,1,696
5,male,meditate,2,34,bus,bus,cong,1,577
5,male,meditate,2,35,hammer,hammer,cong,1,479
5,male,meditate,2,36,tree,cat,incong,1,624
5,male,meditate,2,37,star,star,cong,1,472
5,male,meditate,2,38,star,lemon,incong,1,518
5,male,meditate,2,39,anchor,ball,incong,1,553
5,male,meditate,2,40,drill,hat,incong,1,458
5,male,meditate,2,41,car,car,cong,1,524
5,male,meditate,2,42,scissors,burger,incong,1,515
5,male,meditate,2,43,cup,scissors,incong,1,457
5,male,meditate,2,44,cup,cup,cong,1,596
5,male,meditate,2,45,stapler,stapler,cong,1,521
5,male,meditate,2,46,cat,cat,cong,1,720
5,male,meditate,2,47,shoe,shoe,cong,1,515
5,male,meditate,2,48,shoe,cake,incong,1,508
5,male,meditate,2,49,cat,plate,incong,1,504
5,male,meditate,2,50,burger,boat,incong,1,535
5,male,meditate,2,51,carrot,carrot,cong,1,560
5,male,meditate,2,52,moon,moon,cong,1,587
5,male,meditate,2,53,church,church,cong,1,650
5,male,meditate,2,54,church,orange,incong,1,462
5,male,meditate,2,55,cake,drill,incong,1,423
5,male,meditate,2,56,lemon,lemon,cong,1,501
5,male,meditate,2,57,lemon,bus,incong,1,677
5,male,meditate,2,58,scissors,scissors,cong,1,510
5,male,meditate,2,59,moon,pizza,incong,1,490
5,male,meditate,2,60,fork,fork,cong,1,572
6,male,meditate,1,1,burger,bus,incong,1,536
6,male,meditate,1,2,carrot,carrot,cong,1,459
6,male,meditate,1,3,cat,drill,incong,1,631
6,male,meditate,1,4,moon,cake,incong,1,527
6,male,meditate,1,5,stapler,stapler,cong,1,501
6,male,meditate,1,6,horse,horse,cong,1,475
6,male,meditate,1,7,carrot,stapler,incong,1,564
6,male,meditate,1,8,tree,hammer,incong,1,476
6,male,meditate,1,9,car,car,cong,1,481
6,male,meditate,1,10,boat,boat,cong,1,470
6,male,meditate,1,11,cat,cat,cong,1,591
6,male,meditate,1,12,fork,fork,cong,1,568
6,male,meditate,1,13,burger,burger,cong,1,503
6,male,meditate,1,14,pizza,cup,incong,1,601
6,male,meditate,1,15,cup,cup,cong,1,573
6,male,meditate,1,16,plate,plate,cong,1,485
6,male,meditate,1,17,lemon,orange,incong,1,610
6,male,meditate,1,18,apple,apple,cong,1,511
6,male,meditate,1,19,pizza,pizza,cong,1,496
6,male,meditate,1,20,star,star,cong,1,485
6,male,meditate,1,21,scissors,scissors,cong,1,517
6,male,meditate,1,22,bus,bus,cong,1,500
6,male,meditate,1,23,car,cherry,incong,1,481
6,male,meditate,1,24,cherry,plate,incong,1,514
6,male,meditate,1,25,orange,horse,incong,1,541
6,male,meditate,1,26,orange,orange,cong,1,559
6,male,meditate,1,27,anchor,anchor,cong,1,541
6,male,meditate,1,28,ball,ball,cong,1,599
6,male,meditate,1,29,cake,cake,cong,1,590
6,male,meditate,1,30,cherry,cherry,cong,1,572
6,male,meditate,2,31,horse,church,incong,1,604
6,male,meditate,2,32,tree,tree,cong,1,445
6,male,meditate,2,33,bus,burger,incong,1,404
6,male,meditate,2,34,dog,dog,cong,1,450
6,male,meditate,2,35,star,ball,incong,1,429
6,male,meditate,2,36,spoon,tree,incong,1,569
6,male,meditate,2,37,hat,dog,incong,1,462
6,male,meditate,2,38,stapler,boat,incong,1,555
6,male,meditate,2,39,shoe,fork,incong,1,543
6,male,meditate,2,40,hammer,star,incong,1,541
6,male,meditate,2,41,church,pizza,incong,1,466
6,male,meditate,2,42,shoe,shoe,cong,1,493
6,male,meditate,2,43,moon,moon,cong,1,523
6,male,meditate,2,44,lemon,lemon,cong,1,513
6,male,meditate,2,45,spoon,spoon,cong,1,624
6,male,meditate,2,46,boat,car,incong,1,654
6,male,meditate,2,47,drill,drill,cong,1,403
6,male,meditate,2,48,apple,carrot,incong,1,508
6,male,meditate,2,49,cup,lemon,incong,1,497
6,male,meditate,2,50,dog,cat,incong,1,511
6,male,meditate,2,51,hat,hat,cong,1,468
6,male,meditate,2,52,hammer,hammer,cong,1,489
6,male,meditate,2,53,fork,hat,incong,1,499
6,male,meditate,2,54,anchor,anchor,cong,1,570
6,male,meditate,2,55,church,church,cong,1,504
6,male,meditate,2,56,plate,shoe,incong,1,402
6,male,meditate,2,57,cake,scissors,incong,0,408
6,male,meditate,2,58,scissors,apple,incong,1,529
6,male,meditate,2,59,ball,moon,incong,1,650
6,male,meditate,2,60,drill,spoon,incong,1,503
7,male,meditate,1,1,star,star,cong,1,419
7,male,meditate,1,2,horse,apple,incong,1,446
7,male,meditate,1,3,hat,fork,incong,1,512
7,male,meditate,1,4,drill,cat,incong,1,413
7,male,meditate,1,5,car,car,cong,1,429
7,male,meditate,1,6,scissors,carrot,incong,1,506
7,male,meditate,1,7,boat,boat,cong,1,476
7,male,meditate,1,8,orange,orange,cong,1,452
7,male,meditate,1,9,spoon,horse,incong,1,397
7,male,meditate,1,10,tree,boat,incong,1,452
7,male,meditate,1,11,anchor,anchor,cong,1,460
7,male,meditate,1,12,star,stapler,incong,1,376
7,male,meditate,1,13,cat,cat,cong,1,449
7,male,meditate,1,14,pizza,star,incong,1,370
7,male,meditate,1,15,ball,hammer,incong,1,412
7,male,meditate,1,16,plate,plate,cong,1,472
7,male,meditate,1,17,boat,cherry,incong,1,356
7,male,meditate,1,18,car,cup,incong,1,440
7,male,meditate,1,19,stapler,spoon,incong,1,491
7,male,meditate,1,20,hat,hat,cong,1,426
7,male,meditate,1,21,cup,cup,cong,1,481
7,male,meditate,1,22,drill,drill,cong,1,420
7,male,meditate,1,23,hammer,hammer,cong,1,476
7,male,meditate,1,24,apple,apple,cong,1,461
7,male,meditate,1,25,ball,ball,cong,1,434
7,male,meditate,1,26,burger,burger,cong,1,461
7,male,meditate,1,27,dog,dog,cong,1,418
7,male,meditate,1,28,anchor,drill,incong,1,349
7,male,meditate,1,29,bus,bus,cong,1,419
7,male,meditate,1,30,hammer,car,incong,1,362
7,male,meditate,2,31,apple,anchor,incong,1,323
7,male,meditate,2,32,burger,burger,cong,1,281
7,male,meditate,2,33,dog,tree,incong,1,346
7,male,meditate,2,34,shoe,shoe,cong,1,359
7,male,meditate,2,35,tree,tree,cong,1,370
7,male,meditate,2,36,lemon,lemon,cong,1,438
7,male,meditate,2,37,plate,church,incong,1,324
7,male,meditate,2,38,cat,pizza,incong,1,326
7,male,meditate,2,39,lemon,shoe,incong,1,522
7,male,meditate,2,40,cake,ball,incong,1,318
7,male,meditate,2,41,carrot,carrot,cong,1,363
7,male,meditate,2,42,horse,horse,cong,1,421
7,male,meditate,2,43,cup,cake,incong,1,477
7,male,meditate,2,44,spoon,spoon,cong,1,402
7,male,meditate,2,45,moon,moon,cong,1,387
7,male,meditate,2,46,orange,orange,cong,1,368
7,male,meditate,2,47,cake,cake,cong,1,362
7,male,meditate,2,48,cherry,dog,incong,1,365
7,male,meditate,2,49,scissors,scissors,cong,1,370
7,male,meditate,2,50,moon,bus,incong,1,269
7,male,meditate,2,51,fork,plate,incong,1,288
7,male,meditate,2,52,bus,hat,incong,1,254
7,male,meditate,2,53,carrot,moon,incong,1,489
7,male,meditate,2,54,stapler,stapler,cong,1,377
7,male,meditate,2,55,shoe,lemon,incong,1,331
7,male,meditate,2,56,fork,fork,cong,1,352
7,male,meditate,2,57,cherry,cherry,cong,1,370
7,male,meditate,2,58,church,scissors,incong,1,456
7,male,meditate,2,59,pizza,pizza,cong,1,414
7,male,meditate,2,60,church,church,cong,1,413
8,male,meditate,1,1,carrot,carrot,cong,1,446
8,male,meditate,1,2,shoe,ball,incong,1,389
8,male,meditate,1,3,moon,moon,cong,1,486
8,male,meditate,1,4,anchor,boat,incong,1,397
8,male,meditate,1,5,cup,cake,incong,1,353
8,male,meditate,1,6,star,bus,incong,1,353
8,male,meditate,1,7,church,apple,incong,1,457
8,male,meditate,1,8,spoon,spoon,cong,1,531
8,male,meditate,1,9,tree,scissors,incong,1,393
8,male,meditate,1,10,stapler,burger,incong,1,359
8,male,meditate,1,11,cat,cat,cong,1,479
8,male,meditate,1,12,hammer,hammer,cong,1,453
8,male,meditate,1,13,orange,orange,cong,1,581
8,male,meditate,1,14,hat,hat,cong,1,444
8,male,meditate,1,15,orange,church,incong,1,446
8,male,meditate,1,16,star,star,cong,1,456
8,male,meditate,1,17,apple,orange,incong,1,485
8,male,meditate,1,18,burger,burger,cong,1,453
8,male,meditate,1,19,church,church,cong,1,439
8,male,meditate,1,20,boat,boat,cong,1,464
8,male,meditate,1,21,ball,ball,cong,1,438
8,male,meditate,1,22,shoe,shoe,cong,1,441
8,male,meditate,1,23,car,hammer,incong,1,546
8,male,meditate,1,24,cake,cup,incong,1,411
8,male,meditate,1,25,pizza,cherry,incong,1,412
8,male,meditate,1,26,lemon,horse,incong,1,367
8,male,meditate,1,27,horse,horse,cong,1,466
8,male,meditate,1,28,lemon,lemon,cong,1,487
8,male,meditate,1,29,burger,drill,incong,1,481
8,male,meditate,1,30,drill,carrot,incong,1,504
8,male,meditate,2,31,fork,fork,cong,1,463
8,male,meditate,2,32,bus,bus,cong,1,390
8,male,meditate,2,33,tree,tree,cong,1,415
8,male,meditate,2,34,scissors,scissors,cong,1,534
8,male,meditate,2,35,cup,cup,cong,1,433
8,male,meditate,2,36,dog,dog,cong,1,473
8,male,meditate,2,37,moon,tree,incong,1,411
8,male,meditate,2,38,fork,cat,incong,1,313
8,male,meditate,2,39,car,car,cong,1,412
8,male,meditate,2,40,cake,cake,cong,1,414
8,male,meditate,2,41,dog,lemon,incong,1,436
8,male,meditate,2,42,cat,stapler,incong,1,416
8,male,meditate,2,43,plate,plate,cong,1,601
8,male,meditate,2,44,pizza,pizza,cong,1,579
8,male,meditate,2,45,anchor,anchor,cong,1,511
8,male,meditate,2,46,cherry,cherry,cong,1,403
8,male,meditate,2,47,hammer,fork,incong,1,300
8,male,meditate,2,48,carrot,spoon,incong,1,422
8,male,meditate,2,49,drill,drill,cong,1,630
8,male,meditate,2,50,bus,dog,incong,1,378
8,male,meditate,2,51,scissors,moon,incong,1,323
8,male,meditate,2,52,horse,plate,incong,1,390
8,male,meditate,2,53,boat,pizza,incong,1,367
8,male,meditate,2,54,hat,star,incong,1,349
8,male,meditate,2,55,apple,apple,cong,1,419
8,male,meditate,2,56,cherry,hat,incong,1,534
8,male,meditate,2,57,stapler,stapler,cong,1,469
8,male,meditate,2,58,spoon,anchor,incong,1,423
8,male,meditate,2,59,plate,shoe,incong,1,438
8,male,meditate,2,60,ball,car,incong,1,414
9,male,meditate,1,1,scissors,lemon,incong,1,520
9,male,meditate,1,2,hat,dog,incong,1,489
9,male,meditate,1,3,cat,pizza,incong,1,576
9,male,meditate,1,4,hat,hat,cong,1,546
9,male,meditate,1,5,drill,ball,incong,1,613
9,male,meditate,1,6,drill,drill,cong,1,472
9,male,meditate,1,7,burger,burger,cong,1,570
9,male,meditate,1,8,scissors,scissors,cong,1,515
9,male,meditate,1,9,pizza,apple,incong,1,610
9,male,meditate,1,10,shoe,church,incong,1,565
9,male,meditate,1,11,orange,orange,cong,1,496
9,male,meditate,1,12,tree,tree,cong,1,556
9,male,meditate,1,13,burger,stapler,incong,1,615
9,male,meditate,1,14,ball,car,incong,1,689
9,male,meditate,1,15,stapler,tree,incong,1,499
9,male,meditate,1,16,boat,boat,cong,1,530
9,male,meditate,1,17,apple,apple,cong,1,561
9,male,meditate,1,18,spoon,spoon,cong,1,533
9,male,meditate,1,19,cake,cake,cong,1,486
9,male,meditate,1,20,car,plate,incong,1,559
9,male,meditate,1,21,ball,ball,cong,1,500
9,male,meditate,1,22,lemon,lemon,cong,1,606
9,male,meditate,1,23,boat,cherry,incong,1,494
9,male,meditate,1,24,lemon,fork,incong,1,492
9,male,meditate,1,25,horse,horse,cong,1,524
9,male,meditate,1,26,horse,orange,incong,1,504
9,male,meditate,1,27,bus,scissors,incong,1,545
9,male,meditate,1,28,hammer,boat,incong,1,535
9,male,meditate,1,29,shoe,shoe,cong,1,524
9,male,meditate,1,30,cup,cup,cong,1,528
9,male,meditate,2,31,hammer,hammer,cong,1,461
9,male,meditate,2,32,dog,hammer,incong,1,609
9,male,meditate,2,33,cat,cat,cong,1,459
9,male,meditate,2,34,plate,plate,cong,1,473
9,male,meditate,2,35,anchor,anchor,cong,1,621
9,male,meditate,2,36,carrot,carrot,cong,1,623
9,male,meditate,2,37,plate,cake,incong,1,571
9,male,meditate,2,38,star,cat,incong,1,676
9,male,meditate,2,39,cake,moon,incong,1,457
9,male,meditate,2,40,stapler,stapler,cong,1,591
9,male,meditate,2,41,orange,star,incong,1,590
9,male,meditate,2,42,pizza,pizza,cong,1,545
9,male,meditate,2,43,fork,carrot,incong,1,571
9,male,meditate,2,44,anchor,shoe,incong,1,449
9,male,meditate,2,45,moon,hat,incong,1,611
9,male,meditate,2,46,spoon,horse,incong,1,518
9,male,meditate,2,47,cherry,burger,incong,1,624
9,male,meditate,2,48,apple,bus,incong,1,490
9,male,meditate,2,49,moon,moon,cong,1,444
9,male,meditate,2,50,dog,dog,cong,1,545
9,male,meditate,2,51,star,star,cong,1,583
9,male,meditate,2,52,tree,cup,incong,1,663
9,male,meditate,2,53,bus,bus,cong,1,642
9,male,meditate,2,54,cherry,cherry,cong,1,421
9,male,meditate,2,55,church,church,cong,1,532
9,male,meditate,2,56,church,spoon,incong,1,582
9,male,meditate,2,57,carrot,drill,incong,1,701
9,male,meditate,2,58,fork,fork,cong,1,451
9,male,meditate,2,59,car,car,cong,1,442
9,male,meditate,2,60,cup,anchor,incong,1,506
10,male,meditate,1,1,anchor,hammer,incong,1,521
10,male,meditate,1,2,cup,cup,cong,1,532
10,male,meditate,1,3,spoon,apple,incong,1,561
10,male,meditate,1,4,shoe,shoe,cong,1,498
10,male,meditate,1,5,hat,carrot,incong,1,476
10,male,meditate,1,6,church,plate,incong,1,512
10,male,meditate,1,7,dog,dog,cong,1,492
10,male,meditate,1,8,cake,cake,cong,1,547
10,male,meditate,1,9,scissors,moon,incong,1,455
10,male,meditate,1,10,dog,pizza,incong,1,488
10,male,meditate,1,11,fork,boat,incong,1,492
10,male,meditate,1,12,fork,fork,cong,1,534
10,male,meditate,1,13,cat,cat,cong,1,506
10,male,meditate,1,14,apple,car,incong,1,543
10,male,meditate,1,15,horse,horse,cong,1,515
10,male,meditate,1,16,apple,apple,cong,1,517
10,male,meditate,1,17,tree,anchor,incong,1,463
10,male,meditate,1,18,hammer,shoe,incong,0,462
10,male,meditate,1,19,drill,drill,cong,1,531
10,male,meditate,1,20,cake,lemon,incong,1,490
10,male,meditate,1,21,ball,horse,incong,1,491
10,male,meditate,1,22,bus,church,incong,1,472
10,male,meditate,1,23,carrot,tree,incong,1,530
10,male,meditate,1,24,orange,orange,cong,1,504
10,male,meditate,1,25,anchor,anchor,cong,1,521
10,male,meditate,1,26,plate,cup,incong,1,616
10,male,meditate,1,27,lemon,lemon,cong,1,492
10,male,meditate,1,28,boat,boat,cong,1,614
10,male,meditate,1,29,car,car,cong,1,577
10,male,meditate,1,30,scissors,scissors,cong,1,532
10,male,meditate,2,31,moon,moon,cong,1,433
10,male,meditate,2,32,spoon,spoon,cong,1,509
10,male,meditate,2,33,orange,cherry,incong,1,544
10,male,meditate,2,34,ball,ball,cong,1,455
10,male,meditate,2,35,pizza,pizza,cong,1,494
10,male,meditate,2,36,burger,ball,incong,1,621
10,male,meditate,2,37,star,scissors,incong,1,550
10,male,meditate,2,38,lemon,hat,incong,1,573
10,male,meditate,2,39,car,orange,incong,1,567
10,male,meditate,2,40,plate,plate,cong,1,569
10,male,meditate,2,41,cherry,cherry,cong,1,541
10,male,meditate,2,42,burger,burger,cong,1,523
10,male,meditate,2,43,hat,hat,cong,1,598
10,male,meditate,2,44,tree,tree,cong,1,455
10,male,meditate,2,45,moon,stapler,incong,1,497
10,male,meditate,2,46,bus,bus,cong,1,442
10,male,meditate,2,47,star,star,cong,1,536
10,male,meditate,2,48,hammer,hammer,cong,1,539
10,male,meditate,2,49,horse,star,incong,1,450
10,male,meditate,2,50,boat,bus,incong,1,464
10,male,meditate,2,51,stapler,dog,incong,1,485
10,male,meditate,2,52,church,church,cong,1,586
10,male,meditate,2,53,cup,spoon,incong,1,556
10,male,meditate,2,54,stapler,stapler,cong,1,583
10,male,meditate,2,55,pizza,cat,incong,1,458
10,male,meditate,2,56,shoe,fork,incong,1,500
10,male,meditate,2,57,drill,drill,cong,1,443
10,male,meditate,2,58,cherry,cake,incong,1,447
10,male,meditate,2,59,carrot,carrot,cong,1,498
10,male,meditate,2,60,cat,burger,incong,1,459
11,male,meditate,1,1,cake,cake,cong,1,457
11,male,meditate,1,2,orange,orange,cong,1,467
11,male,meditate,1,3,stapler,stapler,cong,1,470
11,male,meditate,1,4,horse,hat,incong,1,530
11,male,meditate,1,5,scissors,stapler,incong,1,540
11,male,meditate,1,6,dog,dog,cong,1,466
11,male,meditate,1,7,cat,cherry,incong,1,550
11,male,meditate,1,8,boat,anchor,incong,1,533
11,male,meditate,1,9,horse,horse,cong,1,486
11,male,meditate,1,10,car,cup,incong,1,562
11,male,meditate,1,11,carrot,spoon,incong,1,614
11,male,meditate,1,12,cake,bus,incong,1,633
11,male,meditate,1,13,cherry,cake,incong,1,537
11,male,meditate,1,14,stapler,carrot,incong,1,540
11,male,meditate,1,15,drill,scissors,incong,0,566
11,male,meditate,1,16,star,star,cong,1,506
11,male,meditate,1,17,moon,moon,cong,1,486
11,male,meditate,1,18,fork,plate,incong,1,556
11,male,meditate,1,19,hat,hat,cong,1,463
11,male,meditate,1,20,plate,plate,cong,1,456
11,male,meditate,1,21,hat,star,incong,1,601
11,male,meditate,1,22,spoon,spoon,cong,1,501
11,male,meditate,1,23,shoe,shoe,cong,1,474
11,male,meditate,1,24,lemon,lemon,cong,1,450
11,male,meditate,1,25,tree,horse,incong,1,654
11,male,meditate,1,26,anchor,anchor,cong,1,549
11,male,meditate,1,27,scissors,scissors,cong,1,511
11,male,meditate,1,28,apple,hammer,incong,1,580
11,male,meditate,1,29,apple,apple,cong,1,480
11,male,meditate,1,30,plate,orange,incong,1,648
11,male,meditate,2,31,orange,church,incong,1,527
11,male,meditate,2,32,ball,tree,incong,1,642
11,male,meditate,2,33,hammer,hammer,cong,1,503
11,male,meditate,2,34,moon,cat,incong,1,690
11,male,meditate,2,35,pizza,fork,incong,1,570
11,male,meditate,2,36,bus,dog,incong,1,578
11,male,meditate,2,37,church,church,cong,1,438
11,male,meditate,2,38,star,drill,incong,0,615
11,male,meditate,2,39,carrot,carrot,cong,1,458
11,male,meditate,2,40,spoon,moon,incong,1,685
11,male,meditate,2,41,ball,ball,cong,1,525
11,male,meditate,2,42,cup,car,incong,1,509
11,male,meditate,2,43,fork,fork,cong,1,512
11,male,meditate,2,44,church,burger,incong,0,596
11,male,meditate,2,45,cup,cup,cong,1,447
11,male,meditate,2,46,bus,bus,cong,1,484
11,male,meditate,2,47,lemon,lemon,cong,1,553
11,male,meditate,2,48,burger,boat,incong,1,639
11,male,meditate,2,49,cat,cat,cong,1,487
11,male,meditate,2,50,tree,tree,cong,0,543
11,male,meditate,2,51,drill,drill,cong,1,515
11,male,meditate,2,52,boat,boat,cong,1,455
11,male,meditate,2,53,pizza,pizza,cong,1,450
11,male,meditate,2,54,dog,shoe,incong,1,575
11,male,meditate,2,55,shoe,apple,incong,1,720
11,male,meditate,2,56,burger,burger,cong,1,563
11,male,meditate,2,57,car,car,cong,1,443
11,male,meditate,2,58,anchor,ball,incong,1,571
11,male,meditate,2,59,hammer,pizza,incong,1,659
11,male,meditate,2,60,cherry,cherry,cong,1,537
12,male,meditate,1,1,cake,cake,cong,1,423
12,male,meditate,1,2,lemon,cat,incong,1,556
12,male,meditate,1,3,stapler,stapler,cong,1,471
12,male,meditate,1,4,spoon,spoon,cong,1,473
12,male,meditate,1,5,plate,plate,cong,1,451
12,male,meditate,1,6,orange,orange,cong,0,434
12,male,meditate,1,7,fork,fork,cong,1,427
12,male,meditate,1,8,orange,carrot,incong,1,522
12,male,meditate,1,9,shoe,bus,incong,1,501
12,male,meditate,1,10,hat,hat,cong,1,431
12,male,meditate,1,11,drill,moon,incong,1,564
12,male,meditate,1,12,cup,cup,cong,1,462
12,male,meditate,1,13,car,car,cong,1,422
12,male,meditate,1,14,star,star,cong,1,476
12,male,meditate,1,15,tree,car,incong,1,486
12,male,meditate,1,16,burger,burger,cong,1,566
12,male,meditate,1,17,stapler,hat,incong,0,476
12,male,meditate,1,18,dog,pizza,incong,1,557
12,male,meditate,1,19,star,cake,incong,1,472
12,male,meditate,1,20,boat,boat,cong,1,438
12,male,meditate,1,21,bus,bus,cong,1,471
12,male,meditate,1,22,carrot,dog,incong,1,490
12,male,meditate,1,23,tree,tree,cong,1,537
12,male,meditate,1,24,scissors,orange,incong,1,469
12,male,meditate,1,25,moon,moon,cong,1,441
12,male,meditate,1,26,horse,horse,cong,1,485
12,male,meditate,1,27,cherry,ball,incong,1,539
12,male,meditate,1,28,moon,fork,incong,1,537
12,male,meditate,1,29,burger,star,incong,1,550
12,male,meditate,1,30,ball,ball,cong,1,443
12,male,meditate,2,31,dog,dog,cong,1,480
12,male,meditate,2,32,boat,cherry,incong,1,624
12,male,meditate,2,33,anchor,plate,incong,1,477
12,male,meditate,2,34,ball,boat,incong,1,567
12,male,meditate,2,35,hammer,tree,incong,1,425
12,male,meditate,2,36,anchor,anchor,cong,1,612
12,male,meditate,2,37,cup,stapler,incong,1,440
12,male,meditate,2,38,shoe,shoe,cong,1,437
12,male,meditate,2,39,hammer,hammer,cong,1,379
12,male,meditate,2,40,horse,lemon,incong,1,555
12,male,meditate,2,41,car,spoon,incong,1,509
12,male,meditate,2,42,apple,apple,cong,1,376
12,male,meditate,2,43,plate,shoe,incong,1,577
12,male,meditate,2,44,church,church,cong,1,486
12,male,meditate,2,45,church,anchor,incong,1,603
12,male,meditate,2,46,cake,hammer,incong,1,417
12,male,meditate,2,47,scissors,scissors,cong,1,544
12,male,meditate,2,48,carrot,carrot,cong,1,381
12,male,meditate,2,49,hat,cup,incong,1,591
12,male,meditate,2,50,drill,drill,cong,1,390
12,male,meditate,2,51,fork,drill,incong,1,514
12,male,meditate,2,52,cherry,cherry,cong,1,451
12,male,meditate,2,53,apple,burger,incong,1,548
12,male,meditate,2,54,pizza,pizza,cong,1,395
12,male,meditate,2,55,pizza,apple,incong,1,501
12,male,meditate,2,56,lemon,lemon,cong,1,451
12,male,meditate,2,57,cat,cat,cong,1,411
12,male,meditate,2,58,cat,scissors,incong,1,516
12,male,meditate,2,59,bus,horse,incong,1,441
12,male,meditate,2,60,spoon,church,incong,1,598
13,male,meditate,1,1,tree,tree,cong,1,522
13,male,meditate,1,2,plate,plate,cong,1,482
13,male,meditate,1,3,scissors,spoon,incong,1,335
13,male,meditate,1,4,apple,scissors,incong,1,386
13,male,meditate,1,5,bus,bus,cong,1,292
13,male,meditate,1,6,boat,boat,cong,1,503
13,male,meditate,1,7,hat,drill,incong,0,435
13,male,meditate,1,8,carrot,carrot,cong,1,441
13,male,meditate,1,9,carrot,carrot,cong,1,312
13,male,meditate,1,10,horse,cake,incong,1,419
13,male,meditate,1,11,bus,bus,cong,0,493
13,male,meditate,1,12,ball,anchor,incong,1,297
13,male,meditate,1,13,shoe,shoe,cong,1,493
13,male,meditate,1,14,anchor,cherry,incong,1,384
13,male,meditate,1,15,cherry,cherry,cong,1,553
13,male,meditate,1,16,spoon,boat,incong,0,289
13,male,meditate,1,17,cake,tree,incong,0,385
13,male,meditate,1,18,car,car,cong,1,463
13,male,meditate,1,19,church,church,cong,1,458
13,male,meditate,1,20,boat,shoe,incong,1,322
13,male,meditate,1,21,cup,plate,incong,1,411
13,male,meditate,1,22,stapler,stapler,cong,1,477
13,male,meditate,1,23,ball,ball,cong,1,475
13,male,meditate,1,24,fork,car,incong,1,462
13,male,meditate,1,25,burger,burger,cong,1,470
13,male,meditate,1,26,car,orange,incong,0,336
13,male,meditate,1,27,hat,hat,cong,1,481
13,male,meditate,1,28,shoe,cat,incong,1,287
13,male,meditate,1,29,anchor,anchor,cong,1,495
13,male,meditate,1,30,fork,fork,cong,1,500
13,male,meditate,2,31,plate,fork,incong,1,473
13,male,meditate,2,32,orange,lemon,incong,1,474
13,male,meditate,2,33,cake,cake,cong,1,459
13,male,meditate,2,34,pizza,pizza,cong,1,380
13,male,meditate,2,35,stapler,moon,incong,1,348
13,male,meditate,2,36,dog,dog,cong,1,567
13,male,meditate,2,37,burger,apple,incong,1,282
13,male,meditate,2,38,drill,star,incong,1,325
13,male,meditate,2,39,cherry,ball,incong,1,455
13,male,meditate,2,40,tree,dog,incong,1,414
13,male,meditate,2,41,cat,cat,cong,1,582
13,male,meditate,2,42,lemon,lemon,cong,1,453
13,male,meditate,2,43,apple,apple,cong,0,402
13,male,meditate,2,44,church,hat,incong,1,336
13,male,meditate,2,45,cat,church,incong,1,239
13,male,meditate,2,46,pizza,pizza,cong,1,559
13,male,meditate,2,47,drill,drill,cong,1,494
13,male,meditate,2,48,dog,stapler,incong,1,325
13,male,meditate,2,49,moon,moon,cong,1,512
13,male,meditate,2,50,lemon,cup,incong,1,295
13,male,meditate,2,51,star,burger,incong,1,588
13,male,meditate,2,52,spoon,spoon,cong,1,421
13,male,meditate,2,53,hammer,hammer,cong,1,276
13,male,meditate,2,54,orange,orange,cong,1,508
13,male,meditate,2,55,moon,horse,incong,1,236
13,male,meditate,2,56,star,star,cong,1,442
13,male,meditate,2,57,hammer,hammer,cong,1,414
13,male,meditate,2,58,scissors,scissors,cong,1,401
13,male,meditate,2,59,horse,horse,cong,1,576
13,male,meditate,2,60,cup,cup,cong,0,450
14,male,meditate,1,1,horse,horse,cong,1,519
14,male,meditate,1,2,cherry,cherry,cong,1,463
14,male,meditate,1,3,hat,tree,incong,1,572
14,male,meditate,1,4,spoon,moon,incong,1,586
14,male,meditate,1,5,boat,ball,incong,1,605
14,male,meditate,1,6,tree,tree,cong,1,473
14,male,meditate,1,7,cherry,shoe,incong,1,562
14,male,meditate,1,8,moon,spoon,incong,1,547
14,male,meditate,1,9,ball,plate,incong,0,631
14,male,meditate,1,10,car,car,cong,1,484
14,male,meditate,1,11,bus,apple,incong,1,688
14,male,meditate,1,12,plate,star,incong,0,542
14,male,meditate,1,13,carrot,carrot,cong,0,472
14,male,meditate,1,14,apple,apple,cong,1,470
14,male,meditate,1,15,cup,carrot,incong,1,559
14,male,meditate,1,16,hat,hat,cong,1,466
14,male,meditate,1,17,church,church,cong,1,485
14,male,meditate,1,18,fork,fork,cong,1,453
14,male,meditate,1,19,cat,cat,cong,1,462
14,male,meditate,1,20,drill,drill,cong,1,457
14,male,meditate,1,21,shoe,hat,incong,1,590
14,male,meditate,1,22,scissors,scissors,cong,1,486
14,male,meditate,1,23,dog,dog,cong,1,455
14,male,meditate,1,24,drill,lemon,incong,1,559
14,male,meditate,1,25,carrot,church,incong,1,579
14,male,meditate,1,26,tree,horse,incong,1,603
14,male,meditate,1,27,hammer,cup,incong,1,594
14,male,meditate,1,28,spoon,spoon,cong,1,488
14,male,meditate,1,29,pizza,cake,incong,1,622
14,male,meditate,1,30,cake,cake,cong,1,500
14,male,meditate,2,31,anchor,anchor,cong,1,491
14,male,meditate,2,32,dog,stapler,incong,1,653
14,male,meditate,2,33,stapler,fork,incong,1,535
14,male,meditate,2,34,plate,plate,cong,1,443
14,male,meditate,2,35,fork,cat,incong,1,679
14,male,meditate,2,36,orange,orange,cong,1,493
14,male,meditate,2,37,horse,dog,incong,1,532
14,male,meditate,2,38,cake,anchor,incong,1,637
14,male,meditate,2,39,hammer,hammer,cong,1,446
14,male,meditate,2,40,bus,bus,cong,1,545
14,male,meditate,2,41,scissors,bus,incong,1,611
14,male,meditate,2,42,lemon,lemon,cong,0,476
14,male,meditate,2,43,stapler,stapler,cong,1,563
14,male,meditate,2,44,lemon,orange,incong,1,620
14,male,meditate,2,45,orange,pizza,incong,1,606
14,male,meditate,2,46,car,boat,incong,1,603
14,male,meditate,2,47,pizza,pizza,cong,1,500
14,male,meditate,2,48,cup,cup,cong,1,462
14,male,meditate,2,49,shoe,shoe,cong,1,531
14,male,meditate,2,50,anchor,burger,incong,1,640
14,male,meditate,2,51,boat,boat,cong,1,494
14,male,meditate,2,52,star,scissors,incong,1,558
14,male,meditate,2,53,burger,burger,cong,1,576
14,male,meditate,2,54,moon,moon,cong,1,483
14,male,meditate,2,55,star,star,cong,1,510
14,male,meditate,2,56,church,hammer,incong,1,579
14,male,meditate,2,57,burger,drill,incong,1,606
14,male,meditate,2,58,ball,ball,cong,1,535
14,male,meditate,2,59,apple,car,incong,1,627
14,male,meditate,2,60,cat,cherry,incong,1,648
15,male,meditate,1,1,carrot,carrot,cong,1,529
15,male,meditate,1,2,dog,dog,cong,1,436
15,male,meditate,1,3,cat,cat,cong,1,534
15,male,meditate,1,4,bus,bus,cong,1,436
15,male,meditate,1,5,car,car,cong,1,474
15,male,meditate,1,6,orange,orange,cong,1,587
15,male,meditate,1,7,moon,moon,cong,1,484
15,male,meditate,1,8,carrot,burger,incong,1,315
15,male,meditate,1,9,spoon,apple,incong,1,297
15,male,meditate,1,10,cup,cup,cong,1,485
15,male,meditate,1,11,boat,boat,cong,1,480
15,male,meditate,1,12,plate,hat,incong,1,358
15,male,meditate,1,13,orange,tree,incong,0,268
15,male,meditate,1,14,burger,burger,cong,0,451
15,male,meditate,1,15,shoe,shoe,cong,1,518
15,male,meditate,1,16,bus,shoe,incong,1,292
15,male,meditate,1,17,boat,cup,incong,1,369
15,male,meditate,1,18,cake,cake,cong,1,514
15,male,meditate,1,19,car,orange,incong,1,318
15,male,meditate,1,20,drill,star,incong,1,372
15,male,meditate,1,21,church,church,cong,1,451
15,male,meditate,1,22,apple,apple,cong,1,457
15,male,meditate,1,23,cherry,cherry,cong,1,522
15,male,meditate,1,24,anchor,cherry,incong,0,382
15,male,meditate,1,25,hammer,fork,incong,1,309
15,male,meditate,1,26,cup,anchor,incong,1,292
15,male,meditate,1,27,tree,tree,cong,1,554
15,male,meditate,1,28,dog,bus,incong,1,315
15,male,meditate,1,29,ball,ball,cong,1,438
15,male,meditate,1,30,pizza,spoon,incong,1,289
15,male,meditate,2,31,scissors,stapler,incong,1,292
15,male,meditate,2,32,anchor,anchor,cong,1,465
15,male,meditate,2,33,star,star,cong,1,576
15,male,meditate,2,34,fork,fork,cong,1,533
15,male,meditate,2,35,ball,lemon,incong,1,335
15,male,meditate,2,36,moon,ball,incong,1,363
15,male,meditate,2,37,cat,cake,incong,1,267
15,male,meditate,2,38,lemon,lemon,cong,1,493
15,male,meditate,2,39,spoon,spoon,cong,1,495
15,male,meditate,2,40,burger,horse,incong,1,362
15,male,meditate,2,41,horse,horse,cong,0,484
15,male,meditate,2,42,church,car,incong,1,241
15,male,meditate,2,43,drill,drill,cong,1,482
15,male,meditate,2,44,shoe,scissors,incong,1,441
15,male,meditate,2,45,fork,plate,incong,1,400
15,male,meditate,2,46,lemon,pizza,incong,0,276
15,male,meditate,2,47,hat,hat,cong,1,411
15,male,meditate,2,48,plate,plate,cong,1,512
15,male,meditate,2,49,cake,cat,incong,0,365
15,male,meditate,2,50,hammer,hammer,cong,1,432
15,male,meditate,2,51,apple,boat,incong,1,387
15,male,meditate,2,52,horse,moon,incong,1,419
15,male,meditate,2,53,hat,drill,incong,1,290
15,male,meditate,2,54,stapler,church,incong,1,291
15,male,meditate,2,55,stapler,stapler,cong,1,553
15,male,meditate,2,56,cherry,carrot,incong,1,426
15,male,meditate,2,57,tree,hammer,incong,1,366
15,male,meditate,2,58,scissors,scissors,cong,1,530
15,male,meditate,2,59,pizza,pizza,cong,1,649
15,male,meditate,2,60,star,dog,incong,1,447
16,male,meditate,1,1,bus,hat,incong,1,506
16,male,meditate,1,2,cat,scissors,incong,1,540
16,male,meditate,1,3,cake,bus,incong,1,510
16,male,meditate,1,4,cat,cat,cong,1,478
16,male,meditate,1,5,lemon,lemon,cong,1,499
16,male,meditate,1,6,ball,lemon,incong,1,541
16,male,meditate,1,7,hat,star,incong,1,536
16,male,meditate,1,8,cherry,cherry,cong,1,459
16,male,meditate,1,9,bus,bus,cong,1,501
16,male,meditate,1,10,horse,horse,cong,1,462
16,male,meditate,1,11,cup,cup,cong,1,450
16,male,meditate,1,12,hammer,boat,incong,1,585
16,male,meditate,1,13,drill,plate,incong,1,536
16,male,meditate,1,14,star,burger,incong,1,540
16,male,meditate,1,15,hammer,hammer,cong,1,458
16,male,meditate,1,16,lemon,car,incong,1,601
16,male,meditate,1,17,burger,burger,cong,1,452
16,male,meditate,1,18,moon,moon,cong,1,505
16,male,meditate,1,19,scissors,ball,incong,1,535
16,male,meditate,1,20,shoe,shoe,cong,1,478
16,male,meditate,1,21,apple,drill,incong,1,586
16,male,meditate,1,22,horse,orange,incong,1,589
16,male,meditate,1,23,plate,plate,cong,1,490
16,male,meditate,1,24,orange,orange,cong,1,592
16,male,meditate,1,25,cherry,tree,incong,1,605
16,male,meditate,1,26,cup,fork,incong,1,583
16,male,meditate,1,27,car,cake,incong,1,617
16,male,meditate,1,28,burger,dog,incong,1,650
16,male,meditate,1,29,spoon,hammer,incong,1,583
16,male,meditate,1,30,pizza,spoon,incong,1,544
16,male,meditate,2,31,car,car,cong,0,424
16,male,meditate,2,32,anchor,horse,incong,1,450
16,male,meditate,2,33,hat,hat,cong,1,373
16,male,meditate,2,34,church,church,cong,1,436
16,male,meditate,2,35,pizza,pizza,cong,1,387
16,male,meditate,2,36,church,cup,incong,1,498
16,male,meditate,2,37,spoon,spoon,cong,1,456
16,male,meditate,2,38,orange,pizza,incong,1,676
16,male,meditate,2,39,drill,drill,cong,1,400
16,male,meditate,2,40,star,star,cong,1,430
16,male,meditate,2,41,ball,ball,cong,1,447
16,male,meditate,2,42,fork,fork,cong,0,414
16,male,meditate,2,43,boat,boat,cong,1,436
16,male,meditate,2,44,dog,carrot,incong,1,588
16,male,meditate,2,45,stapler,church,incong,1,584
16,male,meditate,2,46,stapler,stapler,cong,1,438
16,male,meditate,2,47,cake,cake,cong,1,425
16,male,meditate,2,48,fork,moon,incong,1,480
16,male,meditate,2,49,dog,dog,cong,1,447
16,male,meditate,2,50,moon,stapler,incong,1,467
16,male,meditate,2,51,anchor,anchor,cong,1,518
16,male,meditate,2,52,shoe,shoe,cong,1,535
16,male,meditate,2,53,tree,apple,incong,1,747
16,male,meditate,2,54,apple,apple,cong,1,383
16,male,meditate,2,55,tree,tree,cong,1,466
16,male,meditate,2,56,carrot,carrot,cong,1,532
16,male,meditate,2,57,plate,anchor,incong,1,450
16,male,meditate,2,58,scissors,scissors,cong,0,358
16,male,meditate,2,59,carrot,cherry,incong,1,690
16,male,meditate,2,60,boat,cat,incong,0,540
17,male,meditate,1,1,cake,burger,incong,0,577
17,male,meditate,1,2,star,plate,incong,0,638
17,male,meditate,1,3,dog,scissors,incong,1,569
17,male,meditate,1,4,hat,hat,cong,1,549
17,male,meditate,1,5,bus,anchor,incong,1,525
17,male,meditate,1,6,fork,fork,cong,1,590
17,male,meditate,1,7,plate,plate,cong,1,500
17,male,meditate,1,8,tree,stapler,incong,1,539
17,male,meditate,1,9,moon,ball,incong,1,519
17,male,meditate,1,10,horse,car,incong,1,525
17,male,meditate,1,11,lemon,lemon,cong,1,509
17,male,meditate,1,12,orange,tree,incong,1,493
17,male,meditate,1,13,tree,tree,cong,1,604
17,male,meditate,1,14,car,lemon,incong,1,539
17,male,meditate,1,15,carrot,carrot,cong,1,484
17,male,meditate,1,16,hammer,hammer,cong,1,494
17,male,meditate,1,17,star,star,cong,1,487
17,male,meditate,1,18,drill,boat,incong,1,548
17,male,meditate,1,19,plate,spoon,incong,1,607
17,male,meditate,1,20,apple,cake,incong,1,531
17,male,meditate,1,21,orange,orange,cong,1,598
17,male,meditate,1,22,scissors,orange,incong,1,539
17,male,meditate,1,23,lemon,cup,incong,1,529
17,male,meditate,1,24,moon,moon,cong,1,493
17,male,meditate,1,25,hammer,dog,incong,1,580
17,male,meditate,1,26,cup,church,incong,1,600
17,male,meditate,1,27,spoon,spoon,cong,1,538
17,male,meditate,1,28,anchor,anchor,cong,1,526
17,male,meditate,1,29,stapler,stapler,cong,1,501
17,male,meditate,1,30,cake,cake,cong,1,642
17,male,meditate,2,31,shoe,cherry,incong,1,556
17,male,meditate,2,32,church,church,cong,1,596
17,male,meditate,2,33,pizza,pizza,cong,1,460
17,male,meditate,2,34,stapler,carrot,incong,1,466
17,male,meditate,2,35,boat,boat,cong,1,651
17,male,meditate,2,36,cat,fork,incong,1,686
17,male,meditate,2,37,apple,apple,cong,1,476
17,male,meditate,2,38,carrot,cat,incong,1,685
17,male,meditate,2,39,scissors,scissors,cong,1,605
17,male,meditate,2,40,ball,ball,cong,1,543
17,male,meditate,2,41,fork,moon,incong,1,632
17,male,meditate,2,42,dog,dog,cong,1,630
17,male,meditate,2,43,horse,horse,cong,0,508
17,male,meditate,2,44,pizza,star,incong,1,616
17,male,meditate,2,45,cat,cat,cong,1,583
17,male,meditate,2,46,burger,horse,incong,1,533
17,male,meditate,2,47,shoe,shoe,cong,1,507
17,male,meditate,2,48,ball,pizza,incong,1,493
17,male,meditate,2,49,anchor,hammer,incong,1,547
17,male,meditate,2,50,cherry,cherry,cong,0,574
17,male,meditate,2,51,drill,drill,cong,1,580
17,male,meditate,2,52,burger,burger,cong,1,485
17,male,meditate,2,53,hat,apple,incong,1,547
17,male,meditate,2,54,bus,bus,cong,1,629
17,male,meditate,2,55,cherry,shoe,incong,1,489
17,male,meditate,2,56,cup,cup,cong,1,597
17,male,meditate,2,57,spoon,bus,incong,1,615
17,male,meditate,2,58,church,drill,incong,1,536
17,male,meditate,2,59,car,car,cong,1,532
17,male,meditate,2,60,boat,hat,incong,1,692
18,male,meditate,1,1,star,shoe,incong,1,519
18,male,meditate,1,2,hat,horse,incong,1,407
18,male,meditate,1,3,lemon,boat,incong,1,448
18,male,meditate,1,4,cup,cat,incong,1,454
18,male,meditate,1,5,fork,stapler,incong,1,416
18,male,meditate,1,6,fork,fork,cong,1,521
18,male,meditate,1,7,pizza,lemon,incong,0,473
18,male,meditate,1,8,burger,burger,cong,1,532
18,male,meditate,1,9,spoon,spoon,cong,1,468
18,male,meditate,1,10,bus,bus,cong,1,481
18,male,meditate,1,11,anchor,anchor,cong,1,491
18,male,meditate,1,12,car,cake,incong,1,531
18,male,meditate,1,13,carrot,car,incong,1,403
18,male,meditate,1,14,scissors,pizza,incong,1,451
18,male,meditate,1,15,hat,hat,cong,1,478
18,male,meditate,1,16,car,car,cong,1,465
18,male,meditate,1,17,boat,boat,cong,1,452
18,male,meditate,1,18,cake,cake,cong,1,554
18,male,meditate,1,19,tree,tree,cong,0,467
18,male,meditate,1,20,church,church,cong,1,476
18,male,meditate,1,21,spoon,burger,incong,1,539
18,male,meditate,1,22,drill,drill,cong,1,493
18,male,meditate,1,23,carrot,carrot,cong,1,550
18,male,meditate,1,24,cup,cup,cong,1,463
18,male,meditate,1,25,star,star,cong,1,458
18,male,meditate,1,26,apple,apple,cong,1,558
18,male,meditate,1,27,apple,hat,incong,1,538
18,male,meditate,1,28,stapler,stapler,cong,1,462
18,male,meditate,1,29,ball,cherry,incong,1,505
18,male,meditate,1,30,orange,star,incong,1,517
18,male,meditate,2,31,moon,moon,cong,1,670
18,male,meditate,2,32,orange,orange,cong,1,646
18,male,meditate,2,33,horse,horse,cong,1,606
18,male,meditate,2,34,ball,ball,cong,1,587
18,male,meditate,2,35,shoe,shoe,cong,1,485
18,male,meditate,2,36,drill,tree,incong,1,657
18,male,meditate,2,37,dog,dog,cong,1,775
18,male,meditate,2,38,boat,dog,incong,1,390
18,male,meditate,2,39,hammer,hammer,cong,1,546
18,male,meditate,2,40,cherry,hammer,incong,1,535
18,male,meditate,2,41,scissors,scissors,cong,1,426
18,male,meditate,2,42,cherry,cherry,cong,1,404
18,male,meditate,2,43,tree,cup,incong,1,443
18,male,meditate,2,44,cat,bus,incong,1,473
18,male,meditate,2,45,shoe,orange,incong,1,398
18,male,meditate,2,46,hammer,plate,incong,1,620
18,male,meditate,2,47,plate,apple,incong,1,566
18,male,meditate,2,48,pizza,pizza,cong,1,520
18,male,meditate,2,49,dog,scissors,incong,1,522
18,male,meditate,2,50,stapler,ball,incong,1,421
18,male,meditate,2,51,church,drill,incong,1,597
18,male,meditate,2,52,horse,moon,incong,1,627
18,male,meditate,2,53,lemon,lemon,cong,1,491
18,male,meditate,2,54,plate,plate,cong,1,614
18,male,meditate,2,55,bus,church,incong,1,525
18,male,meditate,2,56,cake,spoon,incong,1,488
18,male,meditate,2,57,cat,cat,cong,1,420
18,male,meditate,2,58,burger,carrot,incong,1,447
18,male,meditate,2,59,anchor,anchor,cong,1,473
18,male,meditate,2,60,moon,fork,incong,1,503
19,male,meditate,1,1,hammer,hammer,cong,1,455
19,male,meditate,1,2,horse,horse,cong,1,458
19,male,meditate,1,3,moon,moon,cong,1,459
19,male,meditate,1,4,cat,cat,cong,1,572
19,male,meditate,1,5,burger,burger,cong,1,520
19,male,meditate,1,6,spoon,car,incong,1,433
19,male,meditate,1,7,orange,star,incong,1,462
19,male,meditate,1,8,shoe,shoe,cong,1,502
19,male,meditate,1,9,moon,boat,incong,1,379
19,male,meditate,1,10,anchor,anchor,cong,1,561
19,male,meditate,1,11,dog,tree,incong,1,374
19,male,meditate,1,12,cherry,bus,incong,1,461
19,male,meditate,1,13,dog,dog,cong,1,475
19,male,meditate,1,14,cup,cup,cong,1,561
19,male,meditate,1,15,church,burger,incong,1,469
19,male,meditate,1,16,carrot,carrot,cong,1,543
19,male,meditate,1,17,spoon,spoon,cong,1,437
19,male,meditate,1,18,shoe,carrot,incong,1,389
19,male,meditate,1,19,pizza,hat,incong,1,388
19,male,meditate,1,20,ball,ball,cong,1,434
19,male,meditate,1,21,church,church,cong,1,542
19,male,meditate,1,22,plate,plate,cong,1,443
19,male,meditate,1,23,anchor,lemon,incong,1,359
19,male,meditate,1,24,ball,spoon,incong,1,424
19,male,meditate,1,25,apple,plate,incong,1,343
19,male,meditate,1,26,boat,cat,incong,1,355
19,male,meditate,1,27,car,cherry,incong,1,496
19,male,meditate,1,28,drill,drill,cong,1,473
19,male,meditate,1,29,stapler,stapler,cong,1,572
19,male,meditate,1,30,drill,drill,cong,1,346
19,male,meditate,2,31,cherry,cherry,cong,1,526
19,male,meditate,2,32,lemon,moon,incong,0,330
19,male,meditate,2,33,cat,cake,incong,1,380
19,male,meditate,2,34,hat,hat,cong,1,472
19,male,meditate,2,35,hat,scissors,incong,1,420
19,male,meditate,2,36,tree,tree,cong,1,427
19,male,meditate,2,37,carrot,stapler,incong,1,394
19,male,meditate,2,38,pizza,pizza,cong,1,571
19,male,meditate,2,39,tree,cup,incong,1,436
19,male,meditate,2,40,star,star,cong,1,439
19,male,meditate,2,41,burger,shoe,incong,1,342
19,male,meditate,2,42,star,fork,incong,1,423
19,male,meditate,2,43,hammer,dog,incong,1,503
19,male,meditate,2,44,bus,horse,incong,1,462
19,male,meditate,2,45,fork,ball,incong,0,373
19,male,meditate,2,46,cup,orange,incong,1,349
19,male,meditate,2,47,scissors,scissors,cong,1,528
19,male,meditate,2,48,cake,anchor,incong,1,323
19,male,meditate,2,49,fork,fork,cong,1,459
19,male,meditate,2,50,stapler,hammer,incong,1,441
19,male,meditate,2,51,bus,bus,cong,1,543
19,male,meditate,2,52,cake,cake,cong,1,427
19,male,meditate,2,53,orange,orange,cong,1,496
19,male,meditate,2,54,car,car,cong,1,486
19,male,meditate,2,55,lemon,lemon,cong,1,594
19,male,meditate,2,56,apple,apple,cong,1,435
19,male,meditate,2,57,plate,church,incong,1,476
19,male,meditate,2,58,horse,apple,incong,1,460
19,male,meditate,2,59,scissors,pizza,incong,1,717
19,male,meditate,2,60,boat,boat,cong,1,481
20,male,meditate,1,1,anchor,moon,incong,1,573
20,male,meditate,1,2,anchor,anchor,cong,1,505
20,male,meditate,1,3,stapler,stapler,cong,1,458
20,male,meditate,1,4,horse,lemon,incong,1,492
20,male,meditate,1,5,apple,hat,incong,1,567
20,male,meditate,1,6,scissors,star,incong,1,530
20,male,meditate,1,7,boat,boat,cong,0,505
20,male,meditate,1,8,hat,church,incong,1,487
20,male,meditate,1,9,dog,spoon,incong,1,543
20,male,meditate,1,10,dog,dog,cong,1,451
20,male,meditate,1,11,boat,anchor,incong,1,642
20,male,meditate,1,12,pizza,pizza,cong,1,472
20,male,meditate,1,13,spoon,cake,incong,1,584
20,male,meditate,1,14,apple,apple,cong,1,506
20,male,meditate,1,15,burger,burger,cong,1,645
20,male,meditate,1,16,bus,bus,cong,1,527
20,male,meditate,1,17,car,carrot,incong,0,578
20,male,meditate,1,18,plate,cherry,incong,1,562
20,male,meditate,1,19,drill,scissors,incong,1,513
20,male,meditate,1,20,moon,moon,cong,1,507
20,male,meditate,1,21,fork,car,incong,1,540
20,male,meditate,1,22,star,apple,incong,1,616
20,male,meditate,1,23,cup,shoe,incong,1,512
20,male,meditate,1,24,carrot,burger,incong,1,511
20,male,meditate,1,25,star,star,cong,1,519
20,male,meditate,1,26,cat,cat,cong,1,474
20,male,meditate,1,27,ball,horse,incong,1,653
20,male,meditate,1,28,tree,cat,incong,1,615
20,male,meditate,1,29,cake,stapler,incong,1,474
20,male,meditate,1,30,hammer,boat,incong,1,465
20,male,meditate,2,31,lemon,lemon,cong,1,437
20,male,meditate,2,32,spoon,spoon,cong,1,548
20,male,meditate,2,33,scissors,scissors,cong,1,481
20,male,meditate,2,34,horse,horse,cong,1,484
20,male,meditate,2,35,hammer,hammer,cong,1,551
20,male,meditate,2,36,cake,cake,cong,1,513
20,male,meditate,2,37,cup,cup,cong,1,516
20,male,meditate,2,38,pizza,fork,incong,1,648
20,male,meditate,2,39,moon,plate,incong,1,734
20,male,meditate,2,40,car,car,cong,1,641
20,male,meditate,2,41,ball,ball,cong,1,504
20,male,meditate,2,42,drill,drill,cong,1,458
20,male,meditate,2,43,burger,orange,incong,1,558
20,male,meditate,2,44,church,church,cong,1,725
20,male,meditate,2,45,shoe,ball,incong,1,523
20,male,meditate,2,46,plate,plate,cong,1,430
20,male,meditate,2,47,church,drill,incong,1,601
20,male,meditate,2,48,cherry,pizza,incong,1,664
20,male,meditate,2,49,carrot,carrot,cong,0,472
20,male,meditate,2,50,shoe,shoe,cong,1,502
20,male,meditate,2,51,stapler,hammer,incong,1,523
20,male,meditate,2,52,cherry,cherry,cong,1,601
20,male,meditate,2,53,tree,tree,cong,1,588
20,male,meditate,2,54,orange,orange,cong,1,613
20,male,meditate,2,55,cat,dog,incong,1,634
20,male,meditate,2,56,hat,hat,cong,1,553
20,male,meditate,2,57,fork,fork,cong,1,429
20,male,meditate,2,58,lemon,bus,incong,1,585
20,male,meditate,2,59,bus,cup,incong,1,731
20,male,meditate,2,60,orange,tree,incong,1,531
21,male,meditate,1,1,spoon,horse,incong,1,463
21,male,meditate,1,2,cup,cake,incong,1,478
21,male,meditate,1,3,lemon,stapler,incong,1,587
21,male,meditate,1,4,moon,moon,cong,1,464
21,male,meditate,1,5,drill,drill,cong,1,529
21,male,meditate,1,6,horse,burger,incong,1,579
21,male,meditate,1,7,apple,apple,cong,1,497
21,male,meditate,1,8,burger,burger,cong,1,531
21,male,meditate,1,9,shoe,shoe,cong,1,552
21,male,meditate,1,10,church,dog,incong,1,485
21,male,meditate,1,11,apple,cup,incong,1,454
21,male,meditate,1,12,fork,boat,incong,1,496
21,male,meditate,1,13,car,car,cong,1,513
21,male,meditate,1,14,cherry,tree,incong,1,469
21,male,meditate,1,15,tree,tree,cong,1,520
21,male,meditate,1,16,carrot,carrot,cong,1,554
21,male,meditate,1,17,hammer,hammer,cong,1,546
21,male,meditate,1,18,stapler,stapler,cong,1,498
21,male,meditate,1,19,scissors,hammer,incong,1,527
21,male,meditate,1,20,cake,plate,incong,1,535
21,male,meditate,1,21,carrot,shoe,incong,1,544
21,male,meditate,1,22,cat,cat,cong,1,505
21,male,meditate,1,23,cherry,cherry,cong,1,513
21,male,meditate,1,24,stapler,spoon,incong,1,542
21,male,meditate,1,25,anchor,hat,incong,1,453
21,male,meditate,1,26,hat,pizza,incong,1,488
21,male,meditate,1,27,pizza,church,incong,1,524
21,male,meditate,1,28,drill,drill,cong,1,474
21,male,meditate,1,29,ball,ball,cong,1,507
21,male,meditate,1,30,church,church,cong,1,596
21,male,meditate,2,31,orange,star,incong,1,420
21,male,meditate,2,32,boat,car,incong,1,620
21,male,meditate,2,33,burger,apple,incong,1,433
21,male,meditate,2,34,orange,orange,cong,1,732
21,male,meditate,2,35,cup,cup,cong,1,515
21,male,meditate,2,36,bus,bus,cong,1,510
21,male,meditate,2,37,pizza,pizza,cong,1,528
21,male,meditate,2,38,hammer,lemon,incong,1,427
21,male,meditate,2,39,dog,carrot,incong,1,531
21,male,meditate,2,40,boat,boat,cong,1,604
21,male,meditate,2,41,cake,cake,cong,1,564
21,male,meditate,2,42,car,anchor,incong,1,525
21,male,meditate,2,43,plate,plate,cong,0,518
21,male,meditate,2,44,dog,dog,cong,1,473
21,male,meditate,2,45,cat,ball,incong,1,458
21,male,meditate,2,46,bus,orange,incong,1,427
21,male,meditate,2,47,horse,horse,cong,1,628
21,male,meditate,2,48,plate,fork,incong,1,552
21,male,meditate,2,49,fork,fork,cong,1,648
21,male,meditate,2,50,spoon,spoon,cong,1,464
21,male,meditate,2,51,tree,cherry,incong,1,441
21,male,meditate,2,52,lemon,lemon,cong,1,472
21,male,meditate,2,53,hat,hat,cong,1,562
21,male,meditate,2,54,moon,moon,cong,1,534
21,male,meditate,2,55,ball,cat,incong,1,566
21,male,meditate,2,56,anchor,anchor,cong,1,477
21,male,meditate,2,57,scissors,scissors,cong,1,497
21,male,meditate,2,58,shoe,bus,incong,1,503
21,male,meditate,2,59,star,scissors,incong,1,488
21,male,meditate,2,60,star,star,cong,1,541
22,male,meditate,1,1,hammer,spoon,incong,1,556
22,male,meditate,1,2,car,car,cong,1,481
22,male,meditate,1,3,burger,cake,incong,0,532
22,male,meditate,1,4,dog,apple,incong,1,487
22,male,meditate,1,5,fork,fork,cong,0,467
22,male,meditate,1,6,apple,apple,cong,1,516
22,male,meditate,1,7,church,church,cong,1,444
22,male,meditate,1,8,scissors,plate,incong,1,484
22,male,meditate,1,9,anchor,anchor,cong,1,423
22,male,meditate,1,10,moon,moon,cong,1,487
22,male,meditate,1,11,stapler,pizza,incong,1,593
22,male,meditate,1,12,ball,ball,cong,1,499
22,male,meditate,1,13,car,burger,incong,1,552
22,male,meditate,1,14,carrot,lemon,incong,1,500
22,male,meditate,1,15,bus,church,incong,1,599
22,male,meditate,1,16,drill,star,incong,1,544
22,male,meditate,1,17,hammer,hammer,cong,1,504
22,male,meditate,1,18,cup,cup,cong,1,443
22,male,meditate,1,19,shoe,car,incong,1,558
22,male,meditate,1,20,horse,horse,cong,1,480
22,male,meditate,1,21,fork,anchor,incong,1,530
22,male,meditate,1,22,boat,boat,cong,1,553
22,male,meditate,1,23,church,stapler,incong,1,612
22,male,meditate,1,24,cat,cat,cong,1,522
22,male,meditate,1,25,tree,fork,incong,1,464
22,male,meditate,1,26,orange,orange,cong,1,441
22,male,meditate,1,27,stapler,stapler,cong,1,443
22,male,meditate,1,28,moon,cup,incong,1,460
22,male,meditate,1,29,spoon,spoon,cong,1,461
22,male,meditate,1,30,drill,drill,cong,0,440
22,male,meditate,2,31,burger,burger,cong,1,588
22,male,meditate,2,32,cake,cake,cong,1,459
22,male,meditate,2,33,lemon,lemon,cong,1,444
22,male,meditate,2,34,bus,bus,cong,1,487
22,male,meditate,2,35,hat,carrot,incong,1,575
22,male,meditate,2,36,anchor,ball,incong,1,566
22,male,meditate,2,37,horse,shoe,incong,1,650
22,male,meditate,2,38,lemon,tree,incong,1,552
22,male,meditate,2,39,cup,hat,incong,1,474
22,male,meditate,2,40,star,star,cong,1,485
22,male,meditate,2,41,star,scissors,incong,1,464
22,male,meditate,2,42,plate,cat,incong,1,492
22,male,meditate,2,43,hat,hat,cong,1,485
22,male,meditate,2,44,boat,drill,incong,1,763
22,male,meditate,2,45,shoe,shoe,cong,1,438
22,male,meditate,2,46,cherry,cherry,cong,1,560
22,male,meditate,2,47,carrot,carrot,cong,1,525
22,male,meditate,2,48,cake,cherry,incong,1,446
22,male,meditate,2,49,tree,tree,cong,1,568
22,male,meditate,2,50,apple,boat,incong,1,567
22,male,meditate,2,51,pizza,pizza,cong,1,459
22,male,meditate,2,52,ball,dog,incong,1,537
22,male,meditate,2,53,cat,hammer,incong,1,501
22,male,meditate,2,54,dog,dog,cong,1,472
22,male,meditate,2,55,cherry,bus,incong,1,541
22,male,meditate,2,56,pizza,moon,incong,1,481
22,male,meditate,2,57,plate,plate,cong,1,450
22,male,meditate,2,58,scissors,scissors,cong,1,479
22,male,meditate,2,59,spoon,horse,incong,1,607
22,male,meditate,2,60,orange,orange,cong,1,478
23,male,meditate,1,1,burger,burger,cong,1,522
23,male,meditate,1,2,boat,anchor,incong,1,551
23,male,meditate,1,3,apple,cup,incong,0,503
23,male,meditate,1,4,scissors,moon,incong,1,524
23,male,meditate,1,5,cake,cake,cong,0,521
23,male,meditate,1,6,tree,dog,incong,1,554
23,male,meditate,1,7,dog,tree,incong,1,508
23,male,meditate,1,8,star,pizza,incong,1,602
23,male,meditate,1,9,star,star,cong,1,488
23,male,meditate,1,10,hat,hat,cong,0,518
23,male,meditate,1,11,ball,ball,cong,1,536
23,male,meditate,1,12,dog,dog,cong,1,494
23,male,meditate,1,13,hammer,ball,incong,1,505
23,male,meditate,1,14,burger,horse,incong,1,582
23,male,meditate,1,15,fork,fork,cong,1,485
23,male,meditate,1,16,bus,lemon,incong,1,566
23,male,meditate,1,17,cherry,fork,incong,1,513
23,male,meditate,1,18,spoon,carrot,incong,1,612
23,male,meditate,1,19,orange,orange,cong,1,608
23,male,meditate,1,20,apple,apple,cong,1,584
23,male,meditate,1,21,bus,bus,cong,1,560
23,male,meditate,1,22,church,church,cong,1,463
23,male,meditate,1,23,cup,scissors,incong,1,621
23,male,meditate,1,24,cherry,cherry,cong,1,497
23,male,meditate,1,25,car,spoon,incong,1,507
23,male,meditate,1,26,cake,boat,incong,1,501
23,male,meditate,1,27,moon,hammer,incong,1,572
23,male,meditate,1,28,shoe,drill,incong,1,534
23,male,meditate,1,29,shoe,shoe,cong,1,477
23,male,meditate,1,30,lemon,lemon,cong,1,527
23,male,meditate,2,31,church,cake,incong,1,463
23,male,meditate,2,32,anchor,anchor,cong,1,382
23,male,meditate,2,33,cat,orange,incong,1,539
23,male,meditate,2,34,orange,cherry,incong,1,565
23,male,meditate,2,35,ball,apple,incong,1,370
23,male,meditate,2,36,tree,tree,cong,1,451
23,male,meditate,2,37,moon,moon,cong,1,421
23,male,meditate,2,38,pizza,pizza,cong,1,457
23,male,meditate,2,39,carrot,bus,incong,1,493
23,male,meditate,2,40,cat,cat,cong,1,442
23,male,meditate,2,41,cup,cup,cong,1,525
23,male,meditate,2,42,spoon,spoon,cong,1,413
23,male,meditate,2,43,scissors,scissors,cong,1,359
23,male,meditate,2,44,horse,horse,cong,1,557
23,male,meditate,2,45,plate,burger,incong,1,613
23,male,meditate,2,46,plate,plate,cong,1,455
23,male,meditate,2,47,carrot,carrot,cong,1,493
23,male,meditate,2,48,drill,stapler,incong,1,506
23,male,meditate,2,49,hammer,hammer,cong,1,489
23,male,meditate,2,50,horse,star,incong,1,436
23,male,meditate,2,51,drill,drill,cong,1,400
23,male,meditate,2,52,stapler,stapler,cong,1,401
23,male,meditate,2,53,car,car,cong,1,429
23,male,meditate,2,54,boat,boat,cong,1,372
23,male,meditate,2,55,hat,church,incong,1,539
23,male,meditate,2,56,pizza,hat,incong,1,572
23,male,meditate,2,57,lemon,shoe,incong,1,508
23,male,meditate,2,58,anchor,plate,incong,1,379
23,male,meditate,2,59,fork,cat,incong,1,572
23,male,meditate,2,60,stapler,car,incong,1,517
24,male,meditate,1,1,church,cat,incong,1,484
24,male,meditate,1,2,bus,church,incong,1,499
24,male,meditate,1,3,carrot,carrot,cong,1,476
24,male,meditate,1,4,burger,car,incong,1,624
24,male,meditate,1,5,tree,tree,cong,1,463
24,male,meditate,1,6,pizza,pizza,cong,1,541
24,male,meditate,1,7,apple,shoe,incong,1,484
24,male,meditate,1,8,moon,cherry,incong,1,510
24,male,meditate,1,9,horse,moon,incong,1,498
24,male,meditate,1,10,plate,bus,incong,1,619
24,male,meditate,1,11,shoe,carrot,incong,1,490
24,male,meditate,1,12,orange,orange,cong,1,510
24,male,meditate,1,13,cake,cake,cong,1,526
24,male,meditate,1,14,boat,apple,incong,1,487
24,male,meditate,1,15,star,star,cong,1,501
24,male,meditate,1,16,hammer,anchor,incong,1,477
24,male,meditate,1,17,cat,hat,incong,1,598
24,male,meditate,1,18,plate,plate,cong,0,460
24,male,meditate,1,19,pizza,drill,incong,1,482
24,male,meditate,1,20,spoon,spoon,cong,1,514
24,male,meditate,1,21,cherry,cherry,cong,1,505
24,male,meditate,1,22,burger,burger,cong,1,532
24,male,meditate,1,23,dog,fork,incong,1,511
24,male,meditate,1,24,anchor,anchor,cong,1,501
24,male,meditate,1,25,cat,cat,cong,1,500
24,male,meditate,1,26,hat,spoon,incong,1,529
24,male,meditate,1,27,lemon,star,incong,1,518
24,male,meditate,1,28,cup,cup,cong,1,480
24,male,meditate,1,29,horse,horse,cong,1,460
24,male,meditate,1,30,boat,boat,cong,1,563
24,male,meditate,2,31,star,plate,incong,1,438
24,male,meditate,2,32,drill,dog,incong,1,545
24,male,meditate,2,33,cherry,ball,incong,1,539
24,male,meditate,2,34,fork,boat,incong,1,494
24,male,meditate,2,35,drill,drill,cong,0,531
24,male,meditate,2,36,fork,fork,cong,1,532
24,male,meditate,2,37,moon,moon,cong,1,507
24,male,meditate,2,38,apple,apple,cong,1,501
24,male,meditate,2,39,hat,hat,cong,1,564
24,male,meditate,2,40,tree,hammer,incong,1,480
24,male,meditate,2,41,church,church,cong,1,534
24,male,meditate,2,42,stapler,stapler,cong,1,462
24,male,meditate,2,43,dog,dog,cong,1,484
24,male,meditate,2,44,hammer,hammer,cong,1,531
24,male,meditate,2,45,car,car,cong,1,472
24,male,meditate,2,46,scissors,scissors,cong,1,426
24,male,meditate,2,47,carrot,cake,incong,1,551
24,male,meditate,2,48,shoe,shoe,cong,1,466
24,male,meditate,2,49,anchor,tree,incong,1,482
24,male,meditate,2,50,stapler,stapler,cong,1,519
24,male,meditate,2,51,spoon,lemon,incong,1,553
24,male,meditate,2,52,bus,bus,cong,1,517
24,male,meditate,2,53,scissors,burger,incong,1,474
24,male,meditate,2,54,ball,orange,incong,1,572
24,male,meditate,2,55,car,cup,incong,1,506
24,male,meditate,2,56,ball,ball,cong,1,535
24,male,meditate,2,57,cup,scissors,incong,1,516
24,male,meditate,2,58,lemon,lemon,cong,1,424
24,male,meditate,2,59,orange,pizza,incong,1,567
24,male,meditate,2,60,cake,horse,incong,1,455
25,male,meditate,1,1,ball,ball,cong,1,562
25,male,meditate,1,2,car,car,cong,1,550
25,male,meditate,1,3,horse,horse,cong,1,492
25,male,meditate,1,4,lemon,lemon,cong,1,593
25,male,meditate,1,5,shoe,carrot,incong,1,583
25,male,meditate,1,6,bus,bus,cong,0,505
25,male,meditate,1,7,orange,hammer,incong,1,543
25,male,meditate,1,8,tree,hat,incong,1,451
25,male,meditate,1,9,anchor,anchor,cong,1,541
25,male,meditate,1,10,horse,cherry,incong,1,658
25,male,meditate,1,11,dog,dog,cong,1,485
25,male,meditate,1,12,stapler,scissors,incong,1,492
25,male,meditate,1,13,carrot,carrot,cong,1,635
25,male,meditate,1,14,star,moon,incong,1,491
25,male,meditate,1,15,moon,cake,incong,1,553
25,male,meditate,1,16,anchor,lemon,incong,1,474
25,male,meditate,1,17,plate,plate,cong,1,558
25,male,meditate,1,18,cat,pizza,incong,1,500
25,male,meditate,1,19,drill,spoon,incong,1,525
25,male,meditate,1,20,dog,boat,incong,1,614
25,male,meditate,1,21,spoon,spoon,cong,1,580
25,male,meditate,1,22,carrot,tree,incong,1,458
25,male,meditate,1,23,fork,ball,incong,1,586
25,male,meditate,1,24,shoe,shoe,cong,1,561
25,male,meditate,1,25,drill,drill,cong,1,548
25,male,meditate,1,26,cup,cup,cong,1,630
25,male,meditate,1,27,spoon,dog,incong,1,528
25,male,meditate,1,28,church,fork,incong,1,473
25,male,meditate,1,29,orange,orange,cong,1,512
25,male,meditate,1,30,hat,hat,cong,0,557
25,male,meditate,2,31,tree,tree,cong,1,637
25,male,meditate,2,32,cake,cake,cong,1,513
25,male,meditate,2,33,hat,horse,incong,1,459
25,male,meditate,2,34,car,bus,incong,1,405
25,male,meditate,2,35,scissors,scissors,cong,1,425
25,male,meditate,2,36,star,star,cong,1,616
25,male,meditate,2,37,cake,cat,incong,1,465
25,male,meditate,2,38,stapler,stapler,cong,1,522
25,male,meditate,2,39,pizza,car,incong,1,494
25,male,meditate,2,40,boat,church,incong,1,405
25,male,meditate,2,41,burger,burger,cong,1,583
25,male,meditate,2,42,scissors,cup,incong,1,512
25,male,meditate,2,43,ball,burger,incong,1,587
25,male,meditate,2,44,burger,shoe,incong,1,804
25,male,meditate,2,45,pizza,pizza,cong,1,511
25,male,meditate,2,46,apple,apple,cong,1,613
25,male,meditate,2,47,cherry,star,incong,1,427
25,male,meditate,2,48,cherry,cherry,cong,1,577
25,male,meditate,2,49,hammer,hammer,cong,1,490
25,male,meditate,2,50,bus,drill,incong,1,385
25,male,meditate,2,51,boat,boat,cong,0,615
25,male,meditate,2,52,moon,moon,cong,1,476
25,male,meditate,2,53,church,church,cong,1,557
25,male,meditate,2,54,cat,cat,cong,1,553
25,male,meditate,2,55,lemon,orange,incong,1,567
25,male,meditate,2,56,hammer,stapler,incong,1,537
25,male,meditate,2,57,plate,plate,cong,1,538
25,male,meditate,2,58,apple,apple,cong,1,532
25,male,meditate,2,59,fork,fork,cong,1,712
25,male,meditate,2,60,cup,anchor,incong,1,605
26,male,meditate,1,1,stapler,stapler,cong,1,429
26,male,meditate,1,2,carrot,carrot,cong,1,455
26,male,meditate,1,3,horse,horse,cong,1,460
26,male,meditate,1,4,boat,shoe,incong,1,533
26,male,meditate,1,5,plate,star,incong,1,545
26,male,meditate,1,6,pizza,cup,incong,1,501
26,male,meditate,1,7,horse,cat,incong,1,454
26,male,meditate,1,8,moon,moon,cong,1,502
26,male,meditate,1,9,cake,dog,incong,1,442
26,male,meditate,1,10,star,lemon,incong,1,458
26,male,meditate,1,11,hat,hat,cong,1,525
26,male,meditate,1,12,tree,tree,cong,1,421
26,male,meditate,1,13,boat,boat,cong,1,508
26,male,meditate,1,14,hammer,hammer,cong,1,425
26,male,meditate,1,15,burger,burger,cong,1,458
26,male,meditate,1,16,pizza,pizza,cong,1,479
26,male,meditate,1,17,cat,cat,cong,1,531
26,male,meditate,1,18,cup,horse,incong,1,442
26,male,meditate,1,19,cake,cake,cong,1,499
26,male,meditate,1,20,star,star,cong,1,492
26,male,meditate,1,21,orange,orange,cong,1,415
26,male,meditate,1,22,moon,plate,incong,1,480
26,male,meditate,1,23,ball,ball,cong,1,476
26,male,meditate,1,24,spoon,apple,incong,1,462
26,male,meditate,1,25,spoon,spoon,cong,1,496
26,male,meditate,1,26,ball,cherry,incong,1,432
26,male,meditate,1,27,hat,moon,incong,1,464
26,male,meditate,1,28,shoe,shoe,cong,1,425
26,male,meditate,1,29,fork,stapler,incong,1,462
26,male,meditate,1,30,church,church,cong,1,516
26,male,meditate,2,31,car,car,cong,1,419
26,male,meditate,2,32,apple,tree,incong,1,413
26,male,meditate,2,33,scissors,fork,incong,1,466
26,male,meditate,2,34,fork,fork,cong,1,501
26,male,meditate,2,35,cat,drill,incong,1,435
26,male,meditate,2,36,bus,bus,cong,1,349
26,male,meditate,2,37,drill,drill,cong,1,428
26,male,meditate,2,38,cup,cup,cong,1,329
26,male,meditate,2,39,car,anchor,incong,1,488
26,male,meditate,2,40,orange,hat,incong,1,607
26,male,meditate,2,41,apple,apple,cong,1,416
26,male,meditate,2,42,shoe,boat,incong,1,387
26,male,meditate,2,43,burger,bus,incong,1,427
26,male,meditate,2,44,anchor,anchor,cong,0,388
26,male,meditate,2,45,lemon,scissors,incong,1,419
26,male,meditate,2,46,lemon,lemon,cong,1,427
26,male,meditate,2,47,dog,dog,cong,1,509
26,male,meditate,2,48,scissors,scissors,cong,1,402
26,male,meditate,2,49,bus,cake,incong,1,466
26,male,meditate,2,50,hammer,car,incong,1,430
26,male,meditate,2,51,cherry,hammer,incong,1,334
26,male,meditate,2,52,church,church,cong,1,491
26,male,meditate,2,53,cherry,cherry,cong,1,352
26,male,meditate,2,54,tree,carrot,incong,1,372
26,male,meditate,2,55,stapler,ball,incong,1,692
26,male,meditate,2,56,plate,plate,cong,0,314
26,male,meditate,2,57,anchor,pizza,incong,1,444
26,male,meditate,2,58,dog,spoon,incong,1,437
26,male,meditate,2,59,carrot,burger,incong,1,378
26,male,meditate,2,60,drill,orange,incong,1,409
27,male,meditate,1,1,tree,tree,cong,1,522
27,male,meditate,1,2,ball,ball,cong,1,442
27,male,meditate,1,3,dog,moon,incong,1,487
27,male,meditate,1,4,pizza,hammer,incong,1,467
27,male,meditate,1,5,spoon,spoon,cong,1,434
27,male,meditate,1,6,boat,scissors,incong,1,411
27,male,meditate,1,7,drill,apple,incong,1,467
27,male,meditate,1,8,church,church,cong,1,465
27,male,meditate,1,9,cake,cake,cong,1,545
27,male,meditate,1,10,fork,dog,incong,1,414
27,male,meditate,1,11,cat,cat,cong,1,456
27,male,meditate,1,12,moon,church,incong,1,392
27,male,meditate,1,13,scissors,hat,incong,1,560
27,male,meditate,1,14,cup,cup,cong,1,560
27,male,meditate,1,15,plate,tree,incong,1,413
27,male,meditate,1,16,car,fork,incong,1,398
27,male,meditate,1,17,scissors,scissors,cong,1,441
27,male,meditate,1,18,star,shoe,incong,0,391
27,male,meditate,1,19,burger,burger,cong,1,511
27,male,meditate,1,20,burger,carrot,incong,1,525
27,male,meditate,1,21,church,plate,incong,1,442
27,male,meditate,1,22,moon,moon,cong,1,545
27,male,meditate,1,23,cherry,burger,incong,1,432
27,male,meditate,1,24,bus,pizza,incong,1,424
27,male,meditate,1,25,car,car,cong,1,443
27,male,meditate,1,26,cat,anchor,incong,1,441
27,male,meditate,1,27,carrot,carrot,cong,1,445
27,male,meditate,1,28,orange,orange,cong,1,496
27,male,meditate,1,29,shoe,boat,incong,1,445
27,male,meditate,1,30,pizza,pizza,cong,1,484
27,male,meditate,2,31,bus,bus,cong,1,374
27,male,meditate,2,32,hammer,hammer,cong,1,470
27,male,meditate,2,33,cherry,cherry,cong,1,410
27,male,meditate,2,34,star,star,cong,1,375
27,male,meditate,2,35,anchor,anchor,cong,1,392
27,male,meditate,2,36,tree,cup,incong,1,432
27,male,meditate,2,37,boat,boat,cong,1,556
27,male,meditate,2,38,cup,spoon,incong,1,355
27,male,meditate,2,39,hat,hat,cong,1,411
27,male,meditate,2,40,cake,cherry,incong,1,364
27,male,meditate,2,41,carrot,cake,incong,1,433
27,male,meditate,2,42,ball,ball,cong,1,560
27,male,meditate,2,43,spoon,orange,incong,1,405
27,male,meditate,2,44,stapler,star,incong,1,522
27,male,meditate,2,45,drill,drill,cong,1,345
27,male,meditate,2,46,fork,fork,cong,1,462
27,male,meditate,2,47,anchor,drill,incong,1,444
27,male,meditate,2,48,orange,bus,incong,1,344
27,male,meditate,2,49,horse,horse,cong,1,372
27,male,meditate,2,50,lemon,lemon,cong,1,425
27,male,meditate,2,51,apple,cat,incong,1,400
27,male,meditate,2,52,lemon,stapler,incong,1,432
27,male,meditate,2,53,hat,lemon,incong,1,310
27,male,meditate,2,54,hammer,horse,incong,1,427
27,male,meditate,2,55,dog,dog,cong,1,407
27,male,meditate,2,56,stapler,stapler,cong,1,485
27,male,meditate,2,57,plate,plate,cong,1,600
27,male,meditate,2,58,apple,apple,cong,1,394
27,male,meditate,2,59,horse,car,incong,1,478
27,male,meditate,2,60,shoe,shoe,cong,1,398
28,male,meditate,1,1,cat,tree,incong,1,433
28,male,meditate,1,2,fork,cherry,incong,1,369
28,male,meditate,1,3,hat,stapler,incong,1,437
28,male,meditate,1,4,shoe,shoe,cong,1,543
28,male,meditate,1,5,moon,moon,cong,1,486
28,male,meditate,1,6,pizza,dog,incong,1,458
28,male,meditate,1,7,church,church,cong,0,477
28,male,meditate,1,8,scissors,scissors,cong,1,479
28,male,meditate,1,9,fork,fork,cong,1,458
28,male,meditate,1,10,horse,spoon,incong,1,351
28,male,meditate,1,11,burger,plate,incong,1,451
28,male,meditate,1,12,lemon,lemon,cong,1,538
28,male,meditate,1,13,plate,moon,incong,1,462
28,male,meditate,1,14,orange,cake,incong,1,368
28,male,meditate,1,15,apple,apple,cong,1,540
28,male,meditate,1,16,moon,hammer,incong,1,370
28,male,meditate,1,17,star,shoe,incong,0,370
28,male,meditate,1,18,horse,horse,cong,1,490
28,male,meditate,1,19,drill,carrot,incong,1,368
28,male,meditate,1,20,drill,drill,cong,1,528
28,male,meditate,1,21,cake,cake,cong,1,493
28,male,meditate,1,22,dog,dog,cong,1,515
28,male,meditate,1,23,plate,plate,cong,1,536
28,male,meditate,1,24,spoon,church,incong,1,455
28,male,meditate,1,25,boat,scissors,incong,1,473
28,male,meditate,1,26,hammer,anchor,incong,1,409
28,male,meditate,1,27,car,car,cong,1,485
28,male,meditate,1,28,hat,hat,cong,1,492
28,male,meditate,1,29,boat,boat,cong,1,548
28,male,meditate,1,30,cake,ball,incong,1,426
28,male,meditate,2,31,carrot,drill,incong,1,353
28,male,meditate,2,32,star,star,cong,1,420
28,male,meditate,2,33,ball,pizza,incong,1,363
28,male,meditate,2,34,anchor,star,incong,1,444
28,male,meditate,2,35,cherry,cherry,cong,1,539
28,male,meditate,2,36,cherry,cat,incong,1,294
28,male,meditate,2,37,stapler,fork,incong,1,377
28,male,meditate,2,38,cup,burger,incong,1,309
28,male,meditate,2,39,hammer,hammer,cong,1,550
28,male,meditate,2,40,bus,lemon,incong,1,368
28,male,meditate,2,41,scissors,orange,incong,1,286
28,male,meditate,2,42,stapler,stapler,cong,1,514
28,male,meditate,2,43,apple,horse,incong,1,390
28,male,meditate,2,44,tree,boat,incong,1,393
28,male,meditate,2,45,orange,orange,cong,1,471
28,male,meditate,2,46,dog,cup,incong,1,435
28,male,meditate,2,47,spoon,spoon,cong,1,499
28,male,meditate,2,48,shoe,apple,incong,1,440
28,male,meditate,2,49,bus,bus,cong,1,464
28,male,meditate,2,50,cup,cup,cong,1,626
28,male,meditate,2,51,tree,tree,cong,1,522
28,male,meditate,2,52,church,bus,incong,1,318
28,male,meditate,2,53,cat,cat,cong,1,514
28,male,meditate,2,54,carrot,carrot,cong,1,549
28,male,meditate,2,55,ball,ball,cong,1,461
28,male,meditate,2,56,lemon,car,incong,1,326
28,male,meditate,2,57,burger,burger,cong,1,427
28,male,meditate,2,58,car,hat,incong,1,348
28,male,meditate,2,59,anchor,anchor,cong,1,453
28,male,meditate,2,60,pizza,pizza,cong,1,462
29,male,meditate,1,1,scissors,boat,incong,1,755
29,male,meditate,1,2,stapler,bus,incong,1,648
29,male,meditate,1,3,church,church,cong,1,484
29,male,meditate,1,4,pizza,spoon,incong,1,648
29,male,meditate,1,5,hat,fork,incong,1,688
29,male,meditate,1,6,horse,cat,incong,1,706
29,male,meditate,1,7,shoe,pizza,incong,1,672
29,male,meditate,1,8,stapler,stapler,cong,1,507
29,male,meditate,1,9,cup,cup,cong,1,507
29,male,meditate,1,10,star,hat,incong,1,654
29,male,meditate,1,11,cat,cup,incong,1,648
29,male,meditate,1,12,lemon,lemon,cong,1,585
29,male,meditate,1,13,burger,hammer,incong,1,643
29,male,meditate,1,14,shoe,shoe,cong,1,510
29,male,meditate,1,15,bus,scissors,incong,1,677
29,male,meditate,1,16,pizza,pizza,cong,1,487
29,male,meditate,1,17,apple,apple,cong,1,515
29,male,meditate,1,18,cup,cherry,incong,1,691
29,male,meditate,1,19,hat,hat,cong,1,534
29,male,meditate,1,20,tree,orange,incong,1,777
29,male,meditate,1,21,car,star,incong,1,720
29,male,meditate,1,22,hammer,hammer,cong,1,511
29,male,meditate,1,23,boat,boat,cong,1,559
29,male,meditate,1,24,boat,burger,incong,1,733
29,male,meditate,1,25,carrot,carrot,cong,1,465
29,male,meditate,1,26,church,horse,incong,1,723
29,male,meditate,1,27,lemon,plate,incong,1,666
29,male,meditate,1,28,apple,drill,incong,1,635
29,male,meditate,1,29,ball,ball,cong,1,480
29,male,meditate,1,30,horse,horse,cong,1,494
29,male,meditate,2,31,car,car,cong,1,400
29,male,meditate,2,32,dog,church,incong,1,643
29,male,meditate,2,33,spoon,tree,incong,1,637
29,male,meditate,2,34,orange,orange,cong,1,493
29,male,meditate,2,35,ball,carrot,incong,1,708
29,male,meditate,2,36,burger,burger,cong,1,652
29,male,meditate,2,37,cake,moon,incong,1,645
29,male,meditate,2,38,fork,fork,cong,1,414
29,male,meditate,2,39,anchor,stapler,incong,1,678
29,male,meditate,2,40,scissors,scissors,cong,1,399
29,male,meditate,2,41,orange,anchor,incong,1,606
29,male,meditate,2,42,star,star,cong,1,450
29,male,meditate,2,43,cherry,car,incong,1,681
29,male,meditate,2,44,hammer,apple,incong,1,585
29,male,meditate,2,45,moon,ball,incong,1,689
29,male,meditate,2,46,cherry,cherry,cong,1,438
29,male,meditate,2,47,cat,cat,cong,1,453
29,male,meditate,2,48,plate,plate,cong,1,469
29,male,meditate,2,49,fork,dog,incong,1,645
29,male,meditate,2,50,tree,tree,cong,1,517
29,male,meditate,2,51,plate,shoe,incong,1,786
29,male,meditate,2,52,anchor,anchor,cong,1,616
29,male,meditate,2,53,spoon,spoon,cong,1,449
29,male,meditate,2,54,cake,cake,cong,1,479
29,male,meditate,2,55,drill,drill,cong,1,484
29,male,meditate,2,56,dog,dog,cong,1,424
29,male,meditate,2,57,drill,cake,incong,1,660
29,male,meditate,2,58,carrot,lemon,incong,1,659
29,male,meditate,2,59,bus,bus,cong,1,429
29,male,meditate,2,60,moon,moon,cong,1,470
30,male,meditate,1,1,church,boat,incong,1,571
30,male,meditate,1,2,dog,hat,incong,1,493
30,male,meditate,1,3,fork,pizza,incong,1,626
30,male,meditate,1,4,star,star,cong,1,494
30,male,meditate,1,5,spoon,spoon,cong,1,611
30,male,meditate,1,6,moon,car,incong,0,518
30,male,meditate,1,7,cat,bus,incong,1,606
30,male,meditate,1,8,orange,fork,incong,1,504
30,male,meditate,1,9,anchor,anchor,cong,1,518
30,male,meditate,1,10,cake,cake,cong,1,528
30,male,meditate,1,11,plate,plate,cong,0,556
30,male,meditate,1,12,horse,horse,cong,1,565
30,male,meditate,1,13,moon,moon,cong,1,571
30,male,meditate,1,14,drill,drill,cong,1,494
30,male,meditate,1,15,hammer,hammer,cong,1,581
30,male,meditate,1,16,cup,cup,cong,1,565
30,male,meditate,1,17,carrot,carrot,cong,1,493
30,male,meditate,1,18,cherry,hammer,incong,1,566
30,male,meditate,1,19,scissors,apple,incong,1,534
30,male,meditate,1,20,scissors,scissors,cong,1,532
30,male,meditate,1,21,apple,tree,incong,1,650
30,male,meditate,1,22,anchor,lemon,incong,1,523
30,male,meditate,1,23,ball,horse,incong,1,517
30,male,meditate,1,24,car,car,cong,1,483
30,male,meditate,1,25,horse,spoon,incong,1,586
30,male,meditate,1,26,stapler,plate,incong,1,502
30,male,meditate,1,27,pizza,dog,incong,1,664
30,male,meditate,1,28,star,shoe,incong,0,544
30,male,meditate,1,29,tree,tree,cong,0,517
30,male,meditate,1,30,fork,fork,cong,1,502
30,male,meditate,2,31,boat,boat,cong,1,462
30,male,meditate,2,32,orange,orange,cong,0,473
30,male,meditate,2,33,burger,burger,cong,1,681
30,male,meditate,2,34,car,cat,incong,1,486
30,male,meditate,2,35,shoe,shoe,cong,1,517
30,male,meditate,2,36,stapler,stapler,cong,1,462
30,male,meditate,2,37,spoon,star,incong,1,575
30,male,meditate,2,38,church,church,cong,1,493
30,male,meditate,2,39,cat,cat,cong,1,512
30,male,meditate,2,40,hammer,scissors,incong,1,518
30,male,meditate,2,41,bus,bus,cong,1,588
30,male,meditate,2,42,cup,church,incong,1,717
30,male,meditate,2,43,hat,hat,cong,1,598
30,male,meditate,2,44,lemon,drill,incong,1,507
30,male,meditate,2,45,bus,burger,incong,1,515
30,male,meditate,2,46,drill,cake,incong,1,475
30,male,meditate,2,47,boat,orange,incong,1,544
30,male,meditate,2,48,carrot,moon,incong,1,565
30,male,meditate,2,49,lemon,lemon,cong,1,515
30,male,meditate,2,50,apple,apple,cong,1,506
30,male,meditate,2,51,shoe,ball,incong,1,576
30,male,meditate,2,52,plate,cherry,incong,1,605
30,male,meditate,2,53,ball,ball,cong,1,483
30,male,meditate,2,54,dog,dog,cong,1,547
30,male,meditate,2,55,hat,anchor,incong,1,465
30,male,meditate,2,56,tree,carrot,incong,1,556
30,male,meditate,2,57,pizza,pizza,cong,1,688
30,male,meditate,2,58,burger,cup,incong,1,621
30,male,meditate,2,59,cherry,cherry,cong,1,493
30,male,meditate,2,60,cake,stapler,incong,1,505
31,male,meditate,1,1,drill,church,incong,1,630
31,male,meditate,1,2,moon,moon,cong,1,455
31,male,meditate,1,3,stapler,stapler,cong,0,475
31,male,meditate,1,4,carrot,apple,incong,1,728
31,male,meditate,1,5,tree,tree,cong,1,626
31,male,meditate,1,6,cup,cup,cong,1,497
31,male,meditate,1,7,cherry,fork,incong,1,657
31,male,meditate,1,8,church,church,cong,1,453
31,male,meditate,1,9,scissors,dog,incong,1,621
31,male,meditate,1,10,orange,orange,cong,1,522
31,male,meditate,1,11,ball,burger,incong,1,643
31,male,meditate,1,12,bus,bus,cong,1,465
31,male,meditate,1,13,car,car,cong,1,519
31,male,meditate,1,14,pizza,pizza,cong,1,452
31,male,meditate,1,15,spoon,drill,incong,0,749
31,male,meditate,1,16,boat,spoon,incong,0,737
31,male,meditate,1,17,orange,anchor,incong,1,815
31,male,meditate,1,18,car,orange,incong,1,715
31,male,meditate,1,19,boat,boat,cong,1,506
31,male,meditate,1,20,lemon,ball,incong,1,737
31,male,meditate,1,21,drill,drill,cong,1,476
31,male,meditate,1,22,shoe,shoe,cong,1,498
31,male,meditate,1,23,cat,cat,cong,1,600
31,male,meditate,1,24,church,pizza,incong,1,657
31,male,meditate,1,25,anchor,shoe,incong,1,658
31,male,meditate,1,26,anchor,anchor,cong,1,477
31,male,meditate,1,27,bus,cat,incong,1,629
31,male,meditate,1,28,ball,ball,cong,1,495
31,male,meditate,1,29,fork,cup,incong,1,631
31,male,meditate,1,30,cat,moon,incong,1,642
31,male,meditate,2,31,fork,fork,cong,1,452
31,male,meditate,2,32,carrot,carrot,cong,1,472
31,male,meditate,2,33,plate,tree,incong,1,665
31,male,meditate,2,34,cherry,cherry,cong,1,512
31,male,meditate,2,35,shoe,bus,incong,1,624
31,male,meditate,2,36,hammer,hat,incong,1,665
31,male,meditate,2,37,pizza,cherry,incong,1,673
31,male,meditate,2,38,cup,horse,incong,1,596
31,male,meditate,2,39,hammer,hammer,cong,0,462
31,male,meditate,2,40,lemon,lemon,cong,1,540
31,male,meditate,2,41,moon,car,incong,1,754
31,male,meditate,2,42,apple,boat,incong,1,646
31,male,meditate,2,43,horse,cake,incong,1,650
31,male,meditate,2,44,cake,stapler,incong,1,729
31,male,meditate,2,45,hat,hat,cong,1,566
31,male,meditate,2,46,stapler,scissors,incong,1,568
31,male,meditate,2,47,plate,plate,cong,1,483
31,male,meditate,2,48,dog,dog,cong,1,426
31,male,meditate,2,49,star,star,cong,0,460
31,male,meditate,2,50,tree,plate,incong,1,626
31,male,meditate,2,51,spoon,spoon,cong,1,468
31,male,meditate,2,52,apple,apple,cong,1,440
31,male,meditate,2,53,dog,star,incong,1,565
31,male,meditate,2,54,scissors,scissors,cong,1,483
31,male,meditate,2,55,hat,carrot,incong,1,822
31,male,meditate,2,56,cake,cake,cong,1,603
31,male,meditate,2,57,star,hammer,incong,1,696
31,male,meditate,2,58,horse,horse,cong,1,501
31,male,meditate,2,59,burger,lemon,incong,1,628
31,male,meditate,2,60,burger,burger,cong,1,504
32,male,meditate,1,1,boat,horse,incong,1,467
32,male,meditate,1,2,stapler,cat,incong,1,464
32,male,meditate,1,3,cake,cake,cong,1,477
32,male,meditate,1,4,moon,moon,cong,1,458
32,male,meditate,1,5,hammer,bus,incong,1,387
32,male,meditate,1,6,plate,plate,cong,1,447
32,male,meditate,1,7,hat,cup,incong,1,401
32,male,meditate,1,8,cake,apple,incong,1,357
32,male,meditate,1,9,hammer,hammer,cong,1,526
32,male,meditate,1,10,anchor,anchor,cong,1,519
32,male,meditate,1,11,apple,apple,cong,1,469
32,male,meditate,1,12,pizza,pizza,cong,1,526
32,male,meditate,1,13,car,cake,incong,1,463
32,male,meditate,1,14,ball,ball,cong,1,487
32,male,meditate,1,15,fork,carrot,incong,1,518
32,male,meditate,1,16,scissors,scissors,cong,1,442
32,male,meditate,1,17,shoe,plate,incong,1,389
32,male,meditate,1,18,dog,car,incong,1,388
32,male,meditate,1,19,cherry,cherry,cong,1,432
32,male,meditate,1,20,burger,hat,incong,1,376
32,male,meditate,1,21,burger,burger,cong,1,541
32,male,meditate,1,22,hat,hat,cong,1,439
32,male,meditate,1,23,shoe,shoe,cong,1,430
32,male,meditate,1,24,moon,burger,incong,1,471
32,male,meditate,1,25,horse,horse,cong,1,474
32,male,meditate,1,26,orange,orange,cong,1,477
32,male,meditate,1,27,car,car,cong,1,529
32,male,meditate,1,28,spoon,spoon,cong,1,518
32,male,meditate,1,29,orange,hammer,incong,1,488
32,male,meditate,1,30,bus,bus,cong,1,478
32,male,meditate,2,31,scissors,ball,incong,1,346
32,male,meditate,2,32,apple,tree,incong,0,519
32,male,meditate,2,33,star,star,cong,1,508
32,male,meditate,2,34,cup,cup,cong,1,513
32,male,meditate,2,35,drill,boat,incong,1,454
32,male,meditate,2,36,cherry,stapler,incong,1,426
32,male,meditate,2,37,drill,drill,cong,1,504
32,male,meditate,2,38,fork,fork,cong,1,430
32,male,meditate,2,39,pizza,orange,incong,1,482
32,male,meditate,2,40,dog,dog,cong,1,494
32,male,meditate,2,41,ball,dog,incong,1,371
32,male,meditate,2,42,tree,shoe,incong,1,373
32,male,meditate,2,43,anchor,fork,incong,1,350
32,male,meditate,2,44,carrot,lemon,incong,1,358
32,male,meditate,2,45,star,moon,incong,1,465
32,male,meditate,2,46,cup,church,incong,1,405
32,male,meditate,2,47,plate,anchor,incong,1,474
32,male,meditate,2,48,church,spoon,incong,1,393
32,male,meditate,2,49,stapler,stapler,cong,1,447
32,male,meditate,2,50,cat,cat,cong,1,490
32,male,meditate,2,51,horse,drill,incong,1,508
32,male,meditate,2,52,boat,boat,cong,1,488
32,male,meditate,2,53,spoon,scissors,incong,1,445
32,male,meditate,2,54,tree,tree,cong,1,532
32,male,meditate,2,55,lemon,lemon,cong,1,485
32,male,meditate,2,56,lemon,star,incong,1,457
32,male,meditate,2,57,bus,cherry,incong,1,435
32,male,meditate,2,58,carrot,carrot,cong,1,412
32,male,meditate,2,59,cat,pizza,incong,1,386
32,male,meditate,2,60,church,church,cong,1,557
33,male,meditate,1,1,anchor,anchor,cong,1,469
33,male,meditate,1,2,ball,cat,incong,1,515
33,male,meditate,1,3,car,car,cong,1,658
33,male,meditate,1,4,apple,hat,incong,1,540
33,male,meditate,1,5,hammer,dog,incong,1,667
33,male,meditate,1,6,car,apple,incong,1,597
33,male,meditate,1,7,bus,shoe,incong,1,527
33,male,meditate,1,8,tree,tree,cong,1,494
33,male,meditate,1,9,hammer,hammer,cong,1,467
33,male,meditate,1,10,church,tree,incong,1,672
33,male,meditate,1,11,fork,moon,incong,1,582
33,male,meditate,1,12,shoe,cake,incong,1,596
33,male,meditate,1,13,church,church,cong,1,476
33,male,meditate,1,14,star,pizza,incong,1,518
33,male,meditate,1,15,horse,horse,cong,1,539
33,male,meditate,1,16,carrot,lemon,incong,1,627
33,male,meditate,1,17,hat,hat,cong,1,467
33,male,meditate,1,18,anchor,orange,incong,1,671
33,male,meditate,1,19,stapler,bus,incong,1,505
33,male,meditate,1,20,drill,drill,cong,1,468
33,male,meditate,1,21,orange,anchor,incong,1,541
33,male,meditate,1,22,orange,orange,cong,1,453
33,male,meditate,1,23,bus,bus,cong,1,472
33,male,meditate,1,24,pizza,drill,incong,1,594
33,male,meditate,1,25,cat,cat,cong,1,461
33,male,meditate,1,26,carrot,carrot,cong,1,489
33,male,meditate,1,27,cherry,stapler,incong,1,528
33,male,meditate,1,28,scissors,scissors,cong,1,454
33,male,meditate,1,29,shoe,shoe,cong,1,584
33,male,meditate,1,30,stapler,stapler,cong,1,557
33,male,meditate,2,31,pizza,pizza,cong,1,613
33,male,meditate,2,32,dog,cup,incong,1,630
33,male,meditate,2,33,tree,carrot,incong,1,715
33,male,meditate,2,34,cake,hammer,incong,1,519
33,male,meditate,2,35,moon,star,incong,1,577
33,male,meditate,2,36,boat,plate,incong,1,633
33,male,meditate,2,37,cat,cherry,incong,1,672
33,male,meditate,2,38,dog,dog,cong,1,605
33,male,meditate,2,39,cherry,cherry,cong,1,622
33,male,meditate,2,40,lemon,lemon,cong,1,559
33,male,meditate,2,41,cup,cup,cong,1,562
33,male,meditate,2,42,hat,scissors,incong,1,583
33,male,meditate,2,43,scissors,church,incong,0,615
33,male,meditate,2,44,plate,plate,cong,1,572
33,male,meditate,2,45,apple,apple,cong,1,521
33,male,meditate,2,46,spoon,boat,incong,1,658
33,male,meditate,2,47,cake,cake,cong,1,627
33,male,meditate,2,48,fork,fork,cong,1,586
33,male,meditate,2,49,moon,moon,cong,1,515
33,male,meditate,2,50,horse,horse,cong,1,539
33,male,meditate,2,51,burger,fork,incong,1,655
33,male,meditate,2,52,boat,boat,cong,1,517
33,male,meditate,2,53,ball,ball,cong,1,514
33,male,meditate,2,54,star,star,cong,1,570
33,male,meditate,2,55,cup,spoon,incong,1,655
33,male,meditate,2,56,plate,burger,incong,1,524
33,male,meditate,2,57,burger,burger,cong,1,483
33,male,meditate,2,58,lemon,ball,incong,1,662
33,male,meditate,2,59,drill,car,incong,1,717
33,male,meditate,2,60,spoon,spoon,cong,1,538
34,male,meditate,1,1,cat,stapler,incong,1,437
34,male,meditate,1,2,carrot,pizza,incong,1,428
34,male,meditate,1,3,apple,apple,cong,1,537
34,male,meditate,1,4,fork,fork,cong,1,468
34,male,meditate,1,5,scissors,scissors,cong,1,486
34,male,meditate,1,6,cherry,cherry,cong,1,551
34,male,meditate,1,7,boat,boat,cong,1,582
34,male,meditate,1,8,cat,cat,cong,1,465
34,male,meditate,1,9,orange,orange,cong,1,486
34,male,meditate,1,10,burger,burger,cong,1,530
34,male,meditate,1,11,scissors,hammer,incong,1,404
34,male,meditate,1,12,dog,dog,cong,1,541
34,male,meditate,1,13,shoe,shoe,cong,1,449
34,male,meditate,1,14,plate,plate,cong,1,527
34,male,meditate,1,15,carrot,carrot,cong,1,472
34,male,meditate,1,16,horse,burger,incong,1,421
34,male,meditate,1,17,apple,fork,incong,1,406
34,male,meditate,1,18,church,church,cong,1,518
34,male,meditate,1,19,fork,hat,incong,1,408
34,male,meditate,1,20,tree,tree,cong,1,457
34,male,meditate,1,21,stapler,stapler,cong,1,549
34,male,meditate,1,22,orange,tree,incong,1,485
34,male,meditate,1,23,horse,horse,cong,1,527
34,male,meditate,1,24,pizza,pizza,cong,1,478
34,male,meditate,1,25,cake,lemon,incong,1,417
34,male,meditate,1,26,plate,ball,incong,1,496
34,male,meditate,1,27,hammer,plate,incong,1,478
34,male,meditate,1,28,dog,bus,incong,1,387
34,male,meditate,1,29,stapler,cat,incong,1,509
34,male,meditate,1,30,drill,drill,cong,1,539
34,male,meditate,2,31,hat,hat,cong,1,513
34,male,meditate,2,32,moon,moon,cong,1,489
34,male,meditate,2,33,anchor,cup,incong,1,489
34,male,meditate,2,34,cherry,spoon,incong,1,408
34,male,meditate,2,35,bus,bus,cong,1,559
34,male,meditate,2,36,star,dog,incong,1,532
34,male,meditate,2,37,cup,cup,cong,0,450
34,male,meditate,2,38,ball,cake,incong,1,493
34,male,meditate,2,39,hammer,hammer,cong,1,435
34,male,meditate,2,40,boat,orange,incong,1,502
34,male,meditate,2,41,star,star,cong,1,490
34,male,meditate,2,42,drill,anchor,incong,1,375
34,male,meditate,2,43,lemon,star,incong,1,570
34,male,meditate,2,44,lemon,lemon,cong,1,519
34,male,meditate,2,45,tree,drill,incong,1,633
34,male,meditate,2,46,bus,boat,incong,1,496
34,male,meditate,2,47,hat,moon,incong,1,504
34,male,meditate,2,48,ball,ball,cong,1,424
34,male,meditate,2,49,car,carrot,incong,1,366
34,male,meditate,2,50,cup,church,incong,1,487
34,male,meditate,2,51,anchor,anchor,cong,1,680
34,male,meditate,2,52,burger,horse,incong,1,391
34,male,meditate,2,53,church,scissors,incong,1,411
34,male,meditate,2,54,car,car,cong,1,455
34,male,meditate,2,55,spoon,apple,incong,1,576
34,male,meditate,2,56,pizza,car,incong,1,439
34,male,meditate,2,57,spoon,spoon,cong,1,441
34,male,meditate,2,58,cake,cake,cong,1,538
34,male,meditate,2,59,moon,cherry,incong,1,463
34,male,meditate,2,60,shoe,shoe,cong,1,690
35,male,meditate,1,1,stapler,stapler,cong,1,568
35,male,meditate,1,2,cat,hammer,incong,1,529
35,male,meditate,1,3,star,apple,incong,1,548
35,male,meditate,1,4,car,lemon,incong,1,544
35,male,meditate,1,5,hammer,hammer,cong,1,508
35,male,meditate,1,6,tree,tree,cong,1,524
35,male,meditate,1,7,church,car,incong,1,525
35,male,meditate,1,8,burger,burger,cong,1,515
35,male,meditate,1,9,anchor,moon,incong,1,637
35,male,meditate,1,10,horse,fork,incong,1,591
35,male,meditate,1,11,cake,pizza,incong,1,602
35,male,meditate,1,12,anchor,anchor,cong,1,526
35,male,meditate,1,13,cherry,cherry,cong,1,510
35,male,meditate,1,14,cup,shoe,incong,1,521
35,male,meditate,1,15,bus,bus,cong,1,623
35,male,meditate,1,16,tree,church,incong,1,580
35,male,meditate,1,17,ball,ball,cong,1,617
35,male,meditate,1,18,cup,cup,cong,1,545
35,male,meditate,1,19,stapler,stapler,cong,1,563
35,male,meditate,1,20,orange,burger,incong,1,592
35,male,meditate,1,21,lemon,orange,incong,1,683
35,male,meditate,1,22,bus,bus,cong,1,549
35,male,meditate,1,23,boat,boat,cong,1,560
35,male,meditate,1,24,drill,drill,cong,1,509
35,male,meditate,1,25,pizza,pizza,cong,1,575
35,male,meditate,1,26,scissors,tree,incong,1,562
35,male,meditate,1,27,moon,moon,cong,1,532
35,male,meditate,1,28,hammer,cherry,incong,0,543
35,male,meditate,1,29,spoon,spoon,cong,1,535
35,male,meditate,1,30,carrot,carrot,cong,1,528
35,male,meditate,2,31,carrot,cat,incong,1,504
35,male,meditate,2,32,orange,orange,cong,1,500
35,male,meditate,2,33,plate,plate,cong,1,454
35,male,meditate,2,34,spoon,scissors,incong,1,713
35,male,meditate,2,35,lemon,lemon,cong,1,711
35,male,meditate,2,36,hat,plate,incong,1,813
35,male,meditate,2,37,cake,cake,cong,1,627
35,male,meditate,2,38,apple,horse,incong,1,459
35,male,meditate,2,39,shoe,shoe,cong,1,473
35,male,meditate,2,40,car,car,cong,1,557
35,male,meditate,2,41,star,star,cong,1,774
35,male,meditate,2,42,church,church,cong,1,561
35,male,meditate,2,43,dog,dog,cong,1,547
35,male,meditate,2,44,plate,hat,incong,1,518
35,male,meditate,2,45,apple,apple,cong,1,537
35,male,meditate,2,46,cherry,spoon,incong,1,618
35,male,meditate,2,47,moon,ball,incong,1,489
35,male,meditate,2,48,burger,carrot,incong,1,465
35,male,meditate,2,49,dog,cake,incong,1,529
35,male,meditate,2,50,cat,cat,cong,1,703
35,male,meditate,2,51,pizza,cup,incong,1,829
35,male,meditate,2,52,ball,boat,incong,1,666
35,male,meditate,2,53,shoe,drill,incong,1,452
35,male,meditate,2,54,horse,horse,cong,1,425
35,male,meditate,2,55,fork,fork,cong,1,478
35,male,meditate,2,56,drill,dog,incong,1,713
35,male,meditate,2,57,boat,anchor,incong,1,545
35,male,meditate,2,58,fork,star,incong,1,642
35,male,meditate,2,59,scissors,scissors,cong,1,467
35,male,meditate,2,60,hat,hat,cong,1,485
36,male,meditate,1,1,carrot,carrot,cong,1,501
36,male,meditate,1,2,lemon,lemon,cong,1,624
36,male,meditate,1,3,boat,lemon,incong,1,597
36,male,meditate,1,4,cake,cake,cong,1,505
36,male,meditate,1,5,moon,plate,incong,1,685
36,male,meditate,1,6,bus,bus,cong,1,546
36,male,meditate,1,7,dog,scissors,incong,1,694
36,male,meditate,1,8,hat,horse,incong,1,638
36,male,meditate,1,9,cat,cake,incong,0,766
36,male,meditate,1,10,spoon,spoon,cong,1,545
36,male,meditate,1,11,bus,apple,incong,1,613
36,male,meditate,1,12,stapler,pizza,incong,1,619
36,male,meditate,1,13,moon,moon,cong,1,503
36,male,meditate,1,14,star,carrot,incong,1,601
36,male,meditate,1,15,stapler,stapler,cong,1,519
36,male,meditate,1,16,cherry,cherry,cong,1,663
36,male,meditate,1,17,pizza,star,incong,1,606
36,male,meditate,1,18,orange,orange,cong,1,552
36,male,meditate,1,19,apple,apple,cong,1,492
36,male,meditate,1,20,hammer,shoe,incong,0,614
36,male,meditate,1,21,tree,cup,incong,1,667
36,male,meditate,1,22,shoe,hammer,incong,1,679
36,male,meditate,1,23,apple,anchor,incong,1,698
36,male,meditate,1,24,anchor,anchor,cong,1,619
36,male,meditate,1,25,star,star,cong,1,598
36,male,meditate,1,26,drill,drill,cong,1,571
36,male,meditate,1,27,scissors,scissors,cong,1,522
36,male,meditate,1,28,church,church,cong,1,539
36,male,meditate,1,29,car,car,cong,1,501
36,male,meditate,1,30,fork,fork,cong,1,550
36,male,meditate,2,31,burger,burger,cong,1,604
36,male,meditate,2,32,plate,plate,cong,1,436
36,male,meditate,2,33,church,fork,incong,1,598
36,male,meditate,2,34,burger,cat,incong,1,671
36,male,meditate,2,35,anchor,hat,incong,1,658
36,male,meditate,2,36,cake,ball,incong,1,556
36,male,meditate,2,37,cup,boat,incong,1,607
36,male,meditate,2,38,cup,cup,cong,1,491
36,male,meditate,2,39,tree,tree,cong,1,479
36,male,meditate,2,40,scissors,stapler,incong,1,552
36,male,meditate,2,41,lemon,bus,incong,1,648
36,male,meditate,2,42,shoe,shoe,cong,1,580
36,male,meditate,2,43,plate,cherry,incong,1,596
36,male,meditate,2,44,ball,car,incong,1,693
36,male,meditate,2,45,horse,dog,incong,1,555
36,male,meditate,2,46,hammer,hammer,cong,1,626
36,male,meditate,2,47,carrot,tree,incong,1,525
36,male,meditate,2,48,cat,cat,cong,1,616
36,male,meditate,2,49,drill,orange,incong,1,749
36,male,meditate,2,50,hat,hat,cong,1,618
36,male,meditate,2,51,boat,boat,cong,1,487
36,male,meditate,2,52,horse,horse,cong,1,563
36,male,meditate,2,53,fork,moon,incong,1,637
36,male,meditate,2,54,ball,ball,cong,1,549
36,male,meditate,2,55,cherry,spoon,incong,1,617
36,male,meditate,2,56,spoon,drill,incong,1,640
36,male,meditate,2,57,dog,dog,cong,1,513
36,male,meditate,2,58,pizza,pizza,cong,1,496
36,male,meditate,2,59,orange,burger,incong,1,625
36,male,meditate,2,60,car,church,incong,1,574
37,male,meditate,1,1,moon,fork,incong,1,469
37,male,meditate,1,2,hat,hat,cong,1,424
37,male,meditate,1,3,carrot,pizza,incong,1,414
37,male,meditate,1,4,cake,star,incong,1,412
37,male,meditate,1,5,scissors,hammer,incong,1,424
37,male,meditate,1,6,fork,car,incong,1,557
37,male,meditate,1,7,boat,boat,cong,1,442
37,male,meditate,1,8,moon,moon,cong,1,459
37,male,meditate,1,9,cherry,cherry,cong,1,434
37,male,meditate,1,10,orange,tree,incong,1,431
37,male,meditate,1,11,plate,plate,cong,1,456
37,male,meditate,1,12,burger,burger,cong,1,445
37,male,meditate,1,13,spoon,spoon,cong,1,455
37,male,meditate,1,14,horse,dog,incong,1,394
37,male,meditate,1,15,car,car,cong,1,516
37,male,meditate,1,16,fork,fork,cong,1,553
37,male,meditate,1,17,hat,stapler,incong,1,431
37,male,meditate,1,18,dog,dog,cong,1,543
37,male,meditate,1,19,horse,horse,cong,1,643
37,male,meditate,1,20,cake,cake,cong,1,470
37,male,meditate,1,21,carrot,carrot,cong,1,461
37,male,meditate,1,22,lemon,plate,incong,1,421
37,male,meditate,1,23,boat,lemon,incong,1,380
37,male,meditate,1,24,star,orange,incong,1,432
37,male,meditate,1,25,apple,shoe,incong,1,414
37,male,meditate,1,26,cat,cat,cong,1,432
37,male,meditate,1,27,tree,tree,cong,1,444
37,male,meditate,1,28,hammer,anchor,incong,1,455
37,male,meditate,1,29,church,church,cong,1,426
37,male,meditate,1,30,star,star,cong,1,458
37,male,meditate,2,31,bus,cherry,incong,1,394
37,male,meditate,2,32,anchor,anchor,cong,1,487
37,male,meditate,2,33,ball,ball,cong,1,422
37,male,meditate,2,34,ball,scissors,incong,1,344
37,male,meditate,2,35,shoe,church,incong,1,444
37,male,meditate,2,36,bus,bus,cong,1,489
37,male,meditate,2,37,plate,bus,incong,1,409
37,male,meditate,2,38,hammer,hammer,cong,1,543
37,male,meditate,2,39,lemon,lemon,cong,1,386
37,male,meditate,2,40,cup,cup,cong,1,449
37,male,meditate,2,41,burger,apple,incong,1,377
37,male,meditate,2,42,shoe,shoe,cong,1,566
37,male,meditate,2,43,drill,boat,incong,1,500
37,male,meditate,2,44,cat,moon,incong,1,357
37,male,meditate,2,45,anchor,burger,incong,1,668
37,male,meditate,2,46,tree,ball,incong,1,404
37,male,meditate,2,47,drill,drill,cong,1,416
37,male,meditate,2,48,orange,orange,cong,1,401
37,male,meditate,2,49,pizza,pizza,cong,1,406
37,male,meditate,2,50,pizza,cup,incong,1,491
37,male,meditate,2,51,apple,apple,cong,1,540
37,male,meditate,2,52,church,horse,incong,1,456
37,male,meditate,2,53,spoon,drill,incong,1,451
37,male,meditate,2,54,cherry,cat,incong,1,388
37,male,meditate,2,55,scissors,scissors,cong,1,410
37,male,meditate,2,56,cup,hat,incong,1,414
37,male,meditate,2,57,stapler,spoon,incong,1,488
37,male,meditate,2,58,dog,cake,incong,1,428
