subj,sex,medit,block,trial,word,pic,cond,acc,rt
1,male,meditate,1,1,stapler,stapler,cong,1,583
1,male,meditate,1,2,star,stapler,incong,1,452
1,male,meditate,1,3,boat,boat,cong,1,479
1,male,meditate,1,4,cake,cake,cong,1,546
1,male,meditate,1,5,tree,hammer,incong,1,469
1,male,meditate,1,6,tree,tree,cong,1,576
1,male,meditate,1,7,cherry,cherry,cong,1,523
1,male,meditate,1,8,hat,burger,incong,1,486
1,male,meditate,1,9,cat,cat,cong,1,528
1,male,meditate,1,10,lemon,drill,incong,0,441
1,male,meditate,1,11,ball,ball,cong,1,513
1,male,meditate,1,12,shoe,pizza,incong,1,372
1,male,meditate,1,13,dog,hat,incong,1,365
1,male,meditate,1,14,car,car,cong,1,475
1,male,meditate,1,15,plate,plate,cong,1,538
1,male,meditate,2,16,cup,apple,incong,1,368
1,male,meditate,2,17,scissors,scissors,cong,1,460
1,male,meditate,2,18,ball,bus,incong,1,501
1,male,meditate,2,19,boat,anchor,incong,1,300
1,male,meditate,2,20,horse,horse,cong,1,623
1,male,meditate,2,21,pizza,pizza,cong,1,501
1,male,meditate,2,22,carrot,spoon,incong,1,361
1,male,meditate,2,23,hammer,hammer,cong,1,520
1,male,meditate,2,24,burger,scissors,incong,1,352
1,male,meditate,2,25,cake,car,incong,1,361
1,male,meditate,2,26,hat,hat,cong,1,458
1,male,meditate,2,27,fork,horse,incong,1,411
1,male,meditate,2,28,cup,cup,cong,1,477
1,male,meditate,2,29,orange,orange,cong,1,440
1,male,meditate,2,30,church,church,cong,1,539
1,male,meditate,1,31,anchor,anchor,cong,1,502
1,male,meditate,1,32,apple,apple,cong,1,527
1,male,meditate,1,33,bus,bus,cong,1,493
1,male,meditate,1,34,scissors,plate,incong,1,373
1,male,meditate,1,35,burger,burger,cong,1,496
1,male,meditate,1,36,shoe,shoe,cong,1,495
1,male,meditate,1,37,hammer,cat,incong,1,433
1,male,meditate,1,38,drill,drill,cong,0,513
1,male,meditate,1,39,star,star,cong,1,581
1,male,meditate,1,40,cat,tree,incong,1,365
1,male,meditate,1,41,spoon,spoon,cong,1,508
1,male,meditate,1,42,orange,star,incong,1,424
1,male,meditate,1,43,apple,orange,incong,1,400
1,male,meditate,1,44,fork,fork,cong,1,548
1,male,meditate,1,45,horse,ball,incong,1,410
1,male,meditate,2,46,dog,dog,cong,1,507
1,male,meditate,2,47,plate,boat,incong,1,367
1,male,meditate,2,48,carrot,carrot,cong,1,612
1,male,meditate,2,49,spoon,lemon,incong,0,293
1,male,meditate,2,50,drill,fork,incong,1,427
1,male,meditate,2,51,cherry,cherry,cong,1,404
1,male,meditate,2,52,church,cup,incong,1,435
1,male,meditate,2,53,bus,dog,incong,1,486
1,male,meditate,2,54,lemon,lemon,cong,1,473
1,male,meditate,2,55,pizza,shoe,incong,1,336
1,male,meditate,2,56,stapler,cake,incong,1,348
1,male,meditate,2,57,moon,moon,cong,1,448
1,male,meditate,2,58,anchor,moon,incong,1,369
1,male,meditate,2,59,car,church,incong,1,349
1,male,meditate,2,60,moon,carrot,incong,1,417
2,male,meditate,1,1,fork,hammer,incong,1,585
2,male,meditate,1,2,hat,hat,cong,1,443
2,male,meditate,1,3,cat,cat,cong,1,477
2,male,meditate,1,4,stapler,stapler,cong,1,418
2,male,meditate,1,5,bus,bus,cong,1,430
2,male,meditate,1,6,cup,cup,cong,1,492
2,male,meditate,1,7,anchor,star,incong,1,478
2,male,meditate,1,8,spoon,lemon,incong,1,530
2,male,meditate,1,9,carrot,stapler,incong,1,525
2,male,meditate,1,10,star,carrot,incong,1,485
2,male,meditate,1,11,moon,fork,incong,1,584
2,male,meditate,1,12,hammer,orange,incong,1,640
2,male,meditate,1,13,lemon,lemon,cong,1,437
2,male,meditate,1,14,tree,tree,cong,1,446
2,male,meditate,1,15,plate,plate,cong,1,446
2,male,meditate,2,16,bus,car,incong,1,551
2,male,meditate,2,17,hat,cup,incong,1,479
2,male,meditate,2,18,ball,ball,cong,1,457
2,male,meditate,2,19,fork,fork,cong,1,569
2,male,meditate,2,20,boat,scissors,incong,1,557
2,male,meditate,2,21,orange,orange,cong,1,372
2,male,meditate,2,22,cat,burger,incong,1,478
2,male,meditate,2,23,cake,ball,incong,1,517
2,male,meditate,2,24,lemon,cake,incong,1,510
2,male,meditate,2,25,boat,boat,cong,1,441
2,male,meditate,2,26,dog,spoon,incong,1,535
2,male,meditate,2,27,car,car,cong,1,431
2,male,meditate,2,28,spoon,spoon,cong,1,395
2,male,meditate,2,29,burger,burger,cong,0,657
2,male,meditate,2,30,drill,church,incong,1,487
2,male,meditate,1,31,cherry,cherry,cong,1,532
2,male,meditate,1,32,pizza,pizza,cong,1,426
2,male,meditate,1,33,ball,bus,incong,1,538
2,male,meditate,1,34,plate,apple,incong,1,603
2,male,meditate,1,35,shoe,shoe,cong,1,444
2,male,meditate,1,36,apple,hat,incong,1,540
2,male,meditate,1,37,shoe,cherry,incong,1,471
2,male,meditate,1,38,apple,apple,cong,1,484
2,male,meditate,1,39,church,church,cong,1,446
2,male,meditate,1,40,orange,horse,incong,1,457
2,male,meditate,1,41,pizza,tree,incong,1,463
2,male,meditate,1,42,cake,cake,cong,1,519
2,male,meditate,1,43,drill,drill,cong,1,428
2,male,meditate,1,44,hammer,hammer,cong,1,431
2,male,meditate,1,45,scissors,scissors,cong,1,435
2,male,meditate,2,46,cherry,cat,incong,1,530
2,male,meditate,2,47,tree,plate,incong,1,497
2,male,meditate,2,48,car,boat,incong,1,490
2,male,meditate,2,49,horse,horse,cong,1,447
2,male,meditate,2,50,church,dog,incong,1,411
2,male,meditate,2,51,stapler,pizza,incong,1,453
2,male,meditate,2,52,burger,moon,incong,1,581
2,male,meditate,2,53,dog,dog,cong,1,515
2,male,meditate,2,54,moon,moon,cong,1,556
2,male,meditate,2,55,scissors,anchor,incong,1,563
2,male,meditate,2,56,star,star,cong,1,445
2,male,meditate,2,57,horse,shoe,incong,1,578
2,male,meditate,2,58,cup,drill,incong,1,554
2,male,meditate,2,59,carrot,carrot,cong,1,593
2,male,meditate,2,60,anchor,anchor,cong,1,424
3,male,meditate,1,1,horse,horse,cong,1,514
3,male,meditate,1,2,fork,tree,incong,1,584
3,male,meditate,1,3,lemon,carrot,incong,1,553
3,male,meditate,1,4,horse,scissors,incong,1,546
3,male,meditate,1,5,star,star,cong,1,578
3,male,meditate,1,6,star,horse,incong,1,600
3,male,meditate,1,7,shoe,shoe,cong,1,528
3,male,meditate,1,8,plate,star,incong,1,573
3,male,meditate,1,9,car,moon,incong,1,582
3,male,meditate,1,10,hat,hat,cong,1,522
3,male,meditate,1,11,church,church,cong,1,513
3,male,meditate,1,12,hat,car,incong,1,559
3,male,meditate,1,13,carrot,pizza,incong,1,535
3,male,meditate,1,14,stapler,stapler,cong,1,491
3,male,meditate,1,15,orange,orange,cong,1,565
3,male,meditate,2,16,plate,plate,cong,1,533
3,male,meditate,2,17,spoon,spoon,cong,1,455
3,male,meditate,2,18,carrot,carrot,cong,1,479
3,male,meditate,2,19,lemon,lemon,cong,1,414
3,male,meditate,2,20,anchor,anchor,cong,1,442
3,male,meditate,2,21,cake,spoon,incong,1,502
3,male,meditate,2,22,cherry,hammer,incong,1,551
3,male,meditate,2,23,bus,bus,cong,1,575
3,male,meditate,2,24,drill,drill,cong,1,470
3,male,meditate,2,25,pizza,apple,incong,1,650
3,male,meditate,2,26,stapler,cherry,incong,1,499
3,male,meditate,2,27,orange,drill,incong,1,547
3,male,meditate,2,28,car,car,cong,1,481
3,male,meditate,2,29,shoe,boat,incong,1,573
3,male,meditate,2,30,tree,tree,cong,1,503
3,male,meditate,1,31,ball,cat,incong,1,611
3,male,meditate,1,32,scissors,dog,incong,1,592
3,male,meditate,1,33,boat,boat,cong,1,475
3,male,meditate,1,34,pizza,pizza,cong,1,503
3,male,meditate,1,35,spoon,burger,incong,1,649
3,male,meditate,1,36,dog,dog,cong,1,495
3,male,meditate,1,37,drill,church,incong,1,681
3,male,meditate,1,38,hammer,ball,incong,1,633
3,male,meditate,1,39,fork,fork,cong,1,478
3,male,meditate,1,40,apple,apple,cong,1,483
3,male,meditate,1,41,moon,shoe,incong,0,586
3,male,meditate,1,42,cake,cake,cong,1,546
3,male,meditate,1,43,cat,cat,cong,1,494
3,male,meditate,1,44,boat,hat,incong,1,665
3,male,meditate,1,45,burger,burger,cong,1,540
3,male,meditate,2,46,ball,ball,cong,1,621
3,male,meditate,2,47,moon,moon,cong,1,545
3,male,meditate,2,48,apple,orange,incong,1,592
3,male,meditate,2,49,cup,anchor,incong,1,488
3,male,meditate,2,50,hammer,hammer,cong,1,452
3,male,meditate,2,51,dog,cake,incong,1,647
3,male,meditate,2,52,church,fork,incong,1,604
3,male,meditate,2,53,cherry,cherry,cong,1,521
3,male,meditate,2,54,tree,plate,incong,1,474
3,male,meditate,2,55,burger,lemon,incong,1,540
3,male,meditate,2,56,cup,cup,cong,1,431
3,male,meditate,2,57,anchor,stapler,incong,1,526
3,male,meditate,2,58,bus,bus,cong,1,509
3,male,meditate,2,59,scissors,scissors,cong,1,537
3,male,meditate,2,60,cat,cup,incong,1,528
4,male,meditate,1,1,apple,apple,cong,1,458
4,male,meditate,1,2,stapler,church,incong,1,572
4,male,meditate,1,3,ball,cake,incong,0,604
4,male,meditate,1,4,pizza,cherry,incong,1,549
4,male,meditate,1,5,hammer,moon,incong,1,568
4,male,meditate,1,6,horse,horse,cong,1,451
4,male,meditate,1,7,ball,ball,cong,1,447
4,male,meditate,1,8,spoon,spoon,cong,1,519
4,male,meditate,1,9,fork,fork,cong,1,509
4,male,meditate,1,10,scissors,car,incong,1,575
4,male,meditate,1,11,spoon,pizza,incong,1,744
4,male,meditate,1,12,boat,boat,cong,1,466
4,male,meditate,1,13,hammer,hammer,cong,1,466
4,male,meditate,1,14,anchor,anchor,cong,0,510
4,male,meditate,1,15,plate,plate,cong,1,490
4,male,meditate,2,16,dog,dog,cong,0,458
4,male,meditate,2,17,drill,ball,incong,1,494
4,male,meditate,2,18,plate,anchor,incong,1,501
4,male,meditate,2,19,drill,drill,cong,1,436
4,male,meditate,2,20,church,church,cong,1,497
4,male,meditate,2,21,dog,cup,incong,1,488
4,male,meditate,2,22,moon,moon,cong,1,389
4,male,meditate,2,23,orange,tree,incong,0,688
4,male,meditate,2,24,church,fork,incong,1,648
4,male,meditate,2,25,cherry,star,incong,1,616
4,male,meditate,2,26,pizza,pizza,cong,1,419
4,male,meditate,2,27,car,burger,incong,1,470
4,male,meditate,2,28,burger,burger,cong,1,469
4,male,meditate,2,29,apple,stapler,incong,1,567
4,male,meditate,2,30,cat,drill,incong,1,636
4,male,meditate,1,31,burger,hat,incong,1,624
4,male,meditate,1,32,cake,lemon,incong,1,595
4,male,meditate,1,33,scissors,scissors,cong,1,458
4,male,meditate,1,34,cake,cake,cong,1,448
4,male,meditate,1,35,star,star,cong,1,468
4,male,meditate,1,36,hat,boat,incong,1,538
4,male,meditate,1,37,anchor,plate,incong,1,621
4,male,meditate,1,38,bus,carrot,incong,1,542
4,male,meditate,1,39,star,horse,incong,1,577
4,male,meditate,1,40,shoe,shoe,cong,1,449
4,male,meditate,1,41,tree,shoe,incong,1,505
4,male,meditate,1,42,cup,cup,cong,1,465
4,male,meditate,1,43,lemon,lemon,cong,1,565
4,male,meditate,1,44,cup,scissors,incong,1,589
4,male,meditate,1,45,boat,orange,incong,1,653
4,male,meditate,2,46,cat,cat,cong,1,383
4,male,meditate,2,47,hat,hat,cong,1,370
4,male,meditate,2,48,car,car,cong,1,409
4,male,meditate,2,49,horse,cat,incong,0,651
4,male,meditate,2,50,fork,hammer,incong,1,580
4,male,meditate,2,51,stapler,stapler,cong,1,431
4,male,meditate,2,52,carrot,carrot,cong,1,493
4,male,meditate,2,53,shoe,bus,incong,1,601
4,male,meditate,2,54,cherry,cherry,cong,1,571
4,male,meditate,2,55,lemon,apple,incong,1,501
4,male,meditate,2,56,tree,tree,cong,1,381
4,male,meditate,2,57,bus,bus,cong,1,377
4,male,meditate,2,58,carrot,spoon,incong,1,611
4,male,meditate,2,59,orange,orange,cong,1,439
4,male,meditate,2,60,moon,dog,incong,1,547
5,male,meditate,1,1,church,church,cong,1,492
5,male,meditate,1,2,dog,church,incong,1,545
5,male,meditate,1,3,plate,plate,cong,1,470
5,male,meditate,1,4,drill,pizza,incong,1,602
5,male,meditate,1,5,pizza,pizza,cong,1,479
5,male,meditate,1,6,drill,drill,cong,1,561
5,male,meditate,1,7,orange,orange,cong,1,457
5,male,meditate,1,8,spoon,cake,incong,1,532
5,male,meditate,1,9,cherry,cherry,cong,1,478
5,male,meditate,1,10,boat,boat,cong,1,586
5,male,meditate,1,11,star,star,cong,1,465
5,male,meditate,1,12,burger,lemon,incong,1,591
5,male,meditate,1,13,cake,cake,cong,1,484
5,male,meditate,1,14,orange,orange,cong,1,654
5,male,meditate,1,15,tree,fork,incong,0,564
5,male,meditate,2,16,lemon,drill,incong,1,516
5,male,meditate,2,17,apple,boat,incong,1,612
5,male,meditate,2,18,spoon,spoon,cong,1,493
5,male,meditate,2,19,dog,dog,cong,1,547
5,male,meditate,2,20,carrot,cherry,incong,1,543
5,male,meditate,2,21,fork,moon,incong,1,573
5,male,meditate,2,22,stapler,stapler,cong,1,507
5,male,meditate,2,23,shoe,shoe,cong,0,557
5,male,meditate,2,24,car,burger,incong,1,681
5,male,meditate,2,25,hat,hat,cong,1,528
5,male,meditate,2,26,hammer,carrot,incong,1,541
5,male,meditate,2,27,cake,tree,incong,1,565
5,male,meditate,2,28,moon,moon,cong,1,408
5,male,meditate,2,29,bus,bus,cong,1,447
5,male,meditate,2,30,scissors,scissors,cong,1,464
5,male,meditate,1,31,car,car,cong,1,478
5,male,meditate,1,32,anchor,plate,incong,1,560
5,male,meditate,1,33,carrot,carrot,cong,1,461
5,male,meditate,1,34,scissors,cup,incong,1,540
5,male,meditate,1,35,cherry,anchor,incong,1,636
5,male,meditate,1,36,boat,star,incong,1,710
5,male,meditate,1,37,shoe,stapler,incong,1,516
5,male,meditate,1,38,cup,cup,cong,1,462
5,male,meditate,1,39,pizza,scissors,incong,1,717
5,male,meditate,1,40,plate,shoe,incong,1,582
5,male,meditate,1,41,moon,car,incong,1,542
5,male,meditate,1,42,ball,ball,cong,1,514
5,male,meditate,1,43,ball,cat,incong,1,502
5,male,meditate,1,44,tree,tree,cong,1,524
5,male,meditate,1,45,hammer,hammer,cong,1,467
5,male,meditate,2,46,apple,apple,cong,1,458
5,male,meditate,2,47,star,ball,incong,1,538
5,male,meditate,2,48,church,horse,incong,1,480
5,male,meditate,2,49,lemon,lemon,cong,1,542
5,male,meditate,2,50,fork,fork,cong,1,472
5,male,meditate,2,51,horse,spoon,incong,1,526
5,male,meditate,2,52,hat,hammer,incong,1,596
5,male,meditate,2,53,horse,horse,cong,1,493
5,male,meditate,2,54,cat,cat,cong,1,677
5,male,meditate,2,55,anchor,anchor,cong,1,535
5,male,meditate,2,56,burger,burger,cong,1,448
5,male,meditate,2,57,cup,apple,incong,1,655
5,male,meditate,2,58,cat,dog,incong,1,510
5,male,meditate,2,59,bus,bus,cong,1,654
5,male,meditate,2,60,stapler,hat,incong,0,507
6,male,meditate,1,1,drill,plate,incong,1,657
6,male,meditate,1,2,car,car,cong,1,467
6,male,meditate,1,3,star,star,cong,1,512
6,male,meditate,1,4,star,fork,incong,1,676
6,male,meditate,1,5,horse,horse,cong,1,533
6,male,meditate,1,6,lemon,lemon,cong,1,469
6,male,meditate,1,7,plate,plate,cong,1,472
6,male,meditate,1,8,ball,ball,cong,1,569
6,male,meditate,1,9,carrot,carrot,cong,1,558
6,male,meditate,1,10,moon,tree,incong,1,704
6,male,meditate,1,11,cup,horse,incong,1,638
6,male,meditate,1,12,spoon,car,incong,1,637
6,male,meditate,1,13,anchor,anchor,cong,1,487
6,male,meditate,1,14,spoon,spoon,cong,1,538
6,male,meditate,1,15,car,moon,incong,1,729
6,male,meditate,2,16,bus,bus,cong,1,555
6,male,meditate,2,17,pizza,cup,incong,1,619
6,male,meditate,2,18,scissors,cherry,incong,1,629
6,male,meditate,2,19,burger,burger,cong,1,515
6,male,meditate,2,20,anchor,boat,incong,1,667
6,male,meditate,2,21,horse,lemon,incong,1,607
6,male,meditate,2,22,stapler,stapler,cong,1,484
6,male,meditate,2,23,tree,church,incong,1,687
6,male,meditate,2,24,boat,apple,incong,1,715
6,male,meditate,2,25,dog,dog,cong,1,551
6,male,meditate,2,26,drill,drill,cong,1,537
6,male,meditate,2,27,orange,ball,incong,1,650
6,male,meditate,2,28,cat,cat,cong,1,586
6,male,meditate,2,29,stapler,stapler,cong,1,681
6,male,meditate,2,30,boat,boat,cong,1,544
6,male,meditate,1,31,fork,fork,cong,1,552
6,male,meditate,1,32,hat,hat,cong,1,716
6,male,meditate,1,33,apple,apple,cong,1,498
6,male,meditate,1,34,cake,cake,cong,1,520
6,male,meditate,1,35,cat,cat,cong,1,727
6,male,meditate,1,36,cherry,cherry,cong,1,494
6,male,meditate,1,37,church,shoe,incong,1,759
6,male,meditate,1,38,shoe,shoe,cong,1,500
6,male,meditate,1,39,hammer,hammer,cong,1,466
6,male,meditate,1,40,carrot,cake,incong,1,706
6,male,meditate,1,41,moon,moon,cong,1,531
6,male,meditate,1,42,cup,cup,cong,1,556
6,male,meditate,1,43,pizza,pizza,cong,1,527
6,male,meditate,1,44,hat,hat,cong,1,459
6,male,meditate,1,45,scissors,scissors,cong,1,478
6,male,meditate,2,46,fork,anchor,incong,1,750
6,male,meditate,2,47,dog,drill,incong,1,682
6,male,meditate,2,48,plate,burger,incong,1,655
6,male,meditate,2,49,cherry,scissors,incong,1,838
6,male,meditate,2,50,burger,star,incong,1,747
6,male,meditate,2,51,hammer,bus,incong,1,621
6,male,meditate,2,52,shoe,carrot,incong,1,664
6,male,meditate,2,53,orange,orange,cong,1,502
6,male,meditate,2,54,apple,orange,incong,1,687
6,male,meditate,2,55,church,church,cong,1,521
6,male,meditate,2,56,lemon,dog,incong,1,767
6,male,meditate,2,57,ball,hammer,incong,1,684
6,male,meditate,2,58,bus,pizza,incong,1,695
6,male,meditate,2,59,tree,tree,cong,1,487
6,male,meditate,2,60,cake,spoon,incong,1,769
7,male,meditate,1,1,ball,dog,incong,1,625
7,male,meditate,1,2,cake,apple,incong,1,625
7,male,meditate,1,3,moon,moon,cong,1,516
7,male,meditate,1,4,plate,fork,incong,1,620
7,male,meditate,1,5,spoon,spoon,cong,1,510
7,male,meditate,1,6,pizza,pizza,cong,1,487
7,male,meditate,1,7,car,car,cong,1,524
7,male,meditate,1,8,cup,anchor,incong,1,661
7,male,meditate,1,9,dog,spoon,incong,1,615
7,male,meditate,1,10,church,cake,incong,1,610
7,male,meditate,1,11,drill,drill,cong,1,500
7,male,meditate,1,12,church,church,cong,1,518
7,male,meditate,1,13,horse,horse,cong,1,554
7,male,meditate,1,14,horse,drill,incong,1,638
7,male,meditate,1,15,fork,car,incong,1,614
7,male,meditate,2,16,hammer,tree,incong,1,654
7,male,meditate,2,17,shoe,shoe,cong,1,502
7,male,meditate,2,18,car,ball,incong,1,610
7,male,meditate,2,19,pizza,cat,incong,1,685
7,male,meditate,2,20,burger,cherry,incong,1,595
7,male,meditate,2,21,cherry,star,incong,1,681
7,male,meditate,2,22,moon,shoe,incong,1,745
7,male,meditate,2,23,cherry,cherry,cong,1,496
7,male,meditate,2,24,ball,ball,cong,1,496
7,male,meditate,2,25,cat,hat,incong,1,636
7,male,meditate,2,26,orange,orange,cong,1,480
7,male,meditate,2,27,scissors,scissors,cong,1,433
7,male,meditate,2,28,scissors,church,incong,1,658
7,male,meditate,2,29,burger,burger,cong,1,566
7,male,meditate,2,30,star,star,cong,1,472
7,male,meditate,1,31,anchor,cup,incong,1,599
7,male,meditate,1,32,carrot,plate,incong,1,627
7,male,meditate,1,33,dog,dog,cong,1,513
7,male,meditate,1,34,tree,pizza,incong,1,598
7,male,meditate,1,35,drill,lemon,incong,1,627
7,male,meditate,1,36,lemon,lemon,cong,1,505
7,male,meditate,1,37,apple,scissors,incong,1,623
7,male,meditate,1,38,tree,tree,cong,1,556
7,male,meditate,1,39,apple,apple,cong,1,490
7,male,meditate,1,40,cat,cat,cong,1,489
7,male,meditate,1,41,fork,fork,cong,1,531
7,male,meditate,1,42,star,moon,incong,1,605
7,male,meditate,1,43,carrot,carrot,cong,1,530
7,male,meditate,1,44,boat,horse,incong,1,714
7,male,meditate,1,45,boat,boat,cong,1,504
7,male,meditate,2,46,hammer,hammer,cong,1,532
7,male,meditate,2,47,shoe,stapler,incong,1,758
7,male,meditate,2,48,lemon,orange,incong,1,694
7,male,meditate,2,49,hat,carrot,incong,1,679
7,male,meditate,2,50,stapler,boat,incong,1,625
7,male,meditate,2,51,cake,cake,cong,1,519
7,male,meditate,2,52,bus,bus,cong,1,587
7,male,meditate,2,53,hat,hat,cong,1,587
7,male,meditate,2,54,stapler,stapler,cong,1,482
7,male,meditate,2,55,anchor,anchor,cong,1,477
7,male,meditate,2,56,bus,hammer,incong,1,711
7,male,meditate,2,57,plate,plate,cong,1,468
7,male,meditate,2,58,cup,cup,cong,1,578
7,male,meditate,2,59,orange,burger,incong,1,675
7,male,meditate,2,60,spoon,bus,incong,1,593
8,male,meditate,1,1,fork,tree,incong,1,634
8,male,meditate,1,2,anchor,anchor,cong,1,488
8,male,meditate,1,3,cherry,shoe,incong,1,542
8,male,meditate,1,4,orange,apple,incong,1,651
8,male,meditate,1,5,pizza,orange,incong,1,604
8,male,meditate,1,6,spoon,carrot,incong,1,617
8,male,meditate,1,7,apple,church,incong,1,529
8,male,meditate,1,8,moon,moon,cong,1,473
8,male,meditate,1,9,scissors,burger,incong,1,542
8,male,meditate,1,10,carrot,hammer,incong,1,525
8,male,meditate,1,11,star,star,cong,1,517
8,male,meditate,1,12,plate,plate,cong,1,533
8,male,meditate,1,13,car,car,cong,1,519
8,male,meditate,1,14,anchor,hat,incong,1,526
8,male,meditate,1,15,cherry,cherry,cong,1,496
8,male,meditate,2,16,shoe,cat,incong,1,566
8,male,meditate,2,17,cup,cup,cong,1,457
8,male,meditate,2,18,car,cup,incong,1,511
8,male,meditate,2,19,apple,apple,cong,1,525
8,male,meditate,2,20,church,horse,incong,1,621
8,male,meditate,2,21,lemon,lemon,cong,1,498
8,male,meditate,2,22,cake,cake,cong,1,522
8,male,meditate,2,23,bus,drill,incong,1,589
8,male,meditate,2,24,cake,ball,incong,1,598
8,male,meditate,2,25,ball,scissors,incong,1,675
8,male,meditate,2,26,fork,fork,cong,1,569
8,male,meditate,2,27,pizza,pizza,cong,1,534
8,male,meditate,2,28,stapler,boat,incong,1,684
8,male,meditate,2,29,horse,stapler,incong,1,619
8,male,meditate,2,30,hat,star,incong,1,573
8,male,meditate,1,31,shoe,shoe,cong,1,489
8,male,meditate,1,32,drill,drill,cong,1,478
8,male,meditate,1,33,horse,horse,cong,1,501
8,male,meditate,1,34,moon,cherry,incong,1,536
8,male,meditate,1,35,ball,ball,cong,1,471
8,male,meditate,1,36,boat,cake,incong,1,574
8,male,meditate,1,37,tree,plate,incong,1,541
8,male,meditate,1,38,tree,tree,cong,1,481
8,male,meditate,1,39,burger,burger,cong,1,484
8,male,meditate,1,40,scissors,scissors,cong,1,541
8,male,meditate,1,41,drill,pizza,incong,1,569
8,male,meditate,1,42,burger,moon,incong,0,572
8,male,meditate,1,43,cat,cat,cong,1,480
8,male,meditate,1,44,star,anchor,incong,1,535
8,male,meditate,1,45,church,church,cong,1,490
8,male,meditate,2,46,lemon,car,incong,1,600
8,male,meditate,2,47,dog,lemon,incong,1,585
8,male,meditate,2,48,hat,hat,cong,1,485
8,male,meditate,2,49,cup,fork,incong,1,715
8,male,meditate,2,50,plate,spoon,incong,1,628
8,male,meditate,2,51,cat,dog,incong,1,572
8,male,meditate,2,52,hammer,hammer,cong,1,538
8,male,meditate,2,53,spoon,spoon,cong,1,477
8,male,meditate,2,54,orange,orange,cong,1,478
8,male,meditate,2,55,bus,bus,cong,1,527
8,male,meditate,2,56,carrot,carrot,cong,1,532
8,male,meditate,2,57,hammer,bus,incong,1,625
8,male,meditate,2,58,stapler,stapler,cong,1,586
8,male,meditate,2,59,boat,boat,cong,1,597
8,male,meditate,2,60,dog,dog,cong,1,480
9,male,meditate,1,1,boat,boat,cong,1,567
9,male,meditate,1,2,hammer,lemon,incong,1,569
9,male,meditate,1,3,ball,ball,cong,1,554
9,male,meditate,1,4,apple,bus,incong,1,450
9,male,meditate,1,5,cat,dog,incong,1,434
9,male,meditate,1,6,shoe,church,incong,1,470
9,male,meditate,1,7,moon,spoon,incong,1,462
9,male,meditate,1,8,star,star,cong,1,489
9,male,meditate,1,9,orange,orange,cong,1,503
9,male,meditate,1,10,anchor,anchor,cong,0,527
9,male,meditate,1,11,scissors,scissors,cong,1,545
9,male,meditate,1,12,lemon,lemon,cong,0,527
9,male,meditate,1,13,shoe,shoe,cong,1,516
9,male,meditate,1,14,horse,tree,incong,1,460
9,male,meditate,1,15,bus,bus,cong,1,556
9,male,meditate,2,16,cup,cherry,incong,1,406
9,male,meditate,2,17,plate,cat,incong,1,419
9,male,meditate,2,18,carrot,carrot,cong,1,528
9,male,meditate,2,19,moon,moon,cong,1,493
9,male,meditate,2,20,fork,carrot,incong,1,420
9,male,meditate,2,21,tree,cake,incong,1,378
9,male,meditate,2,22,church,church,cong,0,611
9,male,meditate,2,23,apple,apple,cong,1,463
9,male,meditate,2,24,cup,cup,cong,1,459
9,male,meditate,2,25,hat,hat,cong,1,550
9,male,meditate,2,26,plate,plate,cong,1,459
9,male,meditate,2,27,drill,hammer,incong,1,477
9,male,meditate,2,28,cake,pizza,incong,1,322
9,male,meditate,2,29,boat,shoe,incong,1,456
9,male,meditate,2,30,hammer,hammer,cong,1,494
9,male,meditate,1,31,ball,stapler,incong,1,404
9,male,meditate,1,32,scissors,boat,incong,1,442
9,male,meditate,1,33,fork,fork,cong,1,564
9,male,meditate,1,34,cherry,cherry,cong,0,509
9,male,meditate,1,35,anchor,orange,incong,1,491
9,male,meditate,1,36,pizza,pizza,cong,1,553
9,male,meditate,1,37,burger,horse,incong,1,416
9,male,meditate,1,38,stapler,stapler,cong,1,531
9,male,meditate,1,39,orange,hat,incong,1,478
9,male,meditate,1,40,dog,burger,incong,1,432
9,male,meditate,1,41,drill,drill,cong,1,576
9,male,meditate,1,42,carrot,drill,incong,1,475
9,male,meditate,1,43,burger,burger,cong,1,489
9,male,meditate,1,44,hat,ball,incong,1,491
9,male,meditate,1,45,car,fork,incong,1,462
9,male,meditate,2,46,horse,horse,cong,1,411
9,male,meditate,2,47,bus,star,incong,1,388
9,male,meditate,2,48,spoon,apple,incong,1,380
9,male,meditate,2,49,dog,dog,cong,1,467
9,male,meditate,2,50,stapler,anchor,incong,1,365
9,male,meditate,2,51,cake,cake,cong,1,462
9,male,meditate,2,52,church,scissors,incong,0,461
9,male,meditate,2,53,tree,tree,cong,1,454
9,male,meditate,2,54,cherry,plate,incong,1,358
9,male,meditate,2,55,lemon,moon,incong,1,525
9,male,meditate,2,56,car,car,cong,1,433
9,male,meditate,2,57,pizza,car,incong,1,497
9,male,meditate,2,58,cat,cat,cong,1,423
9,male,meditate,2,59,spoon,spoon,cong,1,544
9,male,meditate,2,60,star,cup,incong,0,401
10,male,meditate,1,1,stapler,stapler,cong,1,526
10,male,meditate,1,2,tree,shoe,incong,1,436
10,male,meditate,1,3,shoe,church,incong,1,480
10,male,meditate,1,4,burger,drill,incong,1,452
10,male,meditate,1,5,shoe,shoe,cong,1,491
10,male,meditate,1,6,lemon,lemon,cong,1,491
10,male,meditate,1,7,hat,hat,cong,1,542
10,male,meditate,1,8,drill,cat,incong,1,528
10,male,meditate,1,9,star,star,cong,1,553
10,male,meditate,1,10,scissors,lemon,incong,1,545
10,male,meditate,1,11,ball,ball,cong,1,520
10,male,meditate,1,12,cake,ball,incong,1,529
10,male,meditate,1,13,stapler,apple,incong,1,550
10,male,meditate,1,14,carrot,hat,incong,1,494
10,male,meditate,1,15,dog,dog,cong,1,527
10,male,meditate,2,16,church,church,cong,1,502
10,male,meditate,2,17,pizza,dog,incong,1,375
10,male,meditate,2,18,car,car,cong,1,517
10,male,meditate,2,19,bus,bus,cong,1,526
10,male,meditate,2,20,orange,fork,incong,1,523
10,male,meditate,2,21,apple,cup,incong,1,435
10,male,meditate,2,22,horse,horse,cong,1,597
10,male,meditate,2,23,spoon,spoon,cong,1,493
10,male,meditate,2,24,boat,plate,incong,1,508
10,male,meditate,2,25,anchor,scissors,incong,1,472
10,male,meditate,2,26,lemon,horse,incong,1,374
10,male,meditate,2,27,pizza,pizza,cong,1,457
10,male,meditate,2,28,drill,drill,cong,1,488
10,male,meditate,2,29,fork,fork,cong,1,477
10,male,meditate,2,30,fork,pizza,incong,1,517
10,male,meditate,1,31,burger,burger,cong,1,498
10,male,meditate,1,32,star,cherry,incong,1,452
10,male,meditate,1,33,hammer,hammer,cong,1,509
10,male,meditate,1,34,moon,hammer,incong,1,543
10,male,meditate,1,35,cherry,cherry,cong,1,564
10,male,meditate,1,36,ball,bus,incong,1,444
10,male,meditate,1,37,plate,plate,cong,1,491
10,male,meditate,1,38,anchor,anchor,cong,1,508
10,male,meditate,1,39,car,moon,incong,1,483
10,male,meditate,1,40,cherry,spoon,incong,1,435
10,male,meditate,1,41,cat,anchor,incong,1,465
10,male,meditate,1,42,horse,carrot,incong,1,491
10,male,meditate,1,43,bus,car,incong,1,448
10,male,meditate,1,44,tree,tree,cong,1,593
10,male,meditate,1,45,cat,cat,cong,1,509
10,male,meditate,2,46,plate,boat,incong,1,563
10,male,meditate,2,47,orange,orange,cong,1,480
10,male,meditate,2,48,boat,boat,cong,1,527
10,male,meditate,2,49,cake,cake,cong,1,536
10,male,meditate,2,50,dog,burger,incong,1,588
10,male,meditate,2,51,apple,apple,cong,1,461
10,male,meditate,2,52,moon,moon,cong,1,589
10,male,meditate,2,53,carrot,carrot,cong,1,501
10,male,meditate,2,54,cup,cup,cong,1,500
10,male,meditate,2,55,hammer,tree,incong,1,408
10,male,meditate,2,56,spoon,star,incong,1,576
10,male,meditate,2,57,cup,stapler,incong,1,451
10,male,meditate,2,58,scissors,scissors,cong,1,457
10,male,meditate,2,59,church,cake,incong,1,511
10,male,meditate,2,60,hat,orange,incong,1,397
11,male,meditate,1,1,orange,orange,cong,1,453
11,male,meditate,1,2,horse,horse,cong,1,451
11,male,meditate,1,3,apple,apple,cong,1,525
11,male,meditate,1,4,hat,hat,cong,1,468
11,male,meditate,1,5,stapler,hammer,incong,1,704
11,male,meditate,1,6,orange,cherry,incong,1,599
11,male,meditate,1,7,tree,apple,incong,1,762
11,male,meditate,1,8,lemon,lemon,cong,1,544
11,male,meditate,1,9,burger,burger,cong,1,500
11,male,meditate,1,10,hammer,star,incong,1,663
11,male,meditate,1,11,anchor,anchor,cong,1,473
11,male,meditate,1,12,cherry,cherry,cong,1,497
11,male,meditate,1,13,shoe,pizza,incong,1,680
11,male,meditate,1,14,plate,plate,cong,1,466
11,male,meditate,1,15,burger,car,incong,1,800
11,male,meditate,2,16,drill,drill,cong,1,547
11,male,meditate,2,17,pizza,spoon,incong,1,799
11,male,meditate,2,18,bus,bus,cong,1,395
11,male,meditate,2,19,cat,moon,incong,1,548
11,male,meditate,2,20,ball,fork,incong,1,672
11,male,meditate,2,21,cup,cup,cong,1,556
11,male,meditate,2,22,spoon,spoon,cong,1,476
11,male,meditate,2,23,pizza,pizza,cong,1,504
11,male,meditate,2,24,hammer,hammer,cong,1,552
11,male,meditate,2,25,car,scissors,incong,1,644
11,male,meditate,2,26,shoe,shoe,cong,1,510
11,male,meditate,2,27,car,car,cong,1,570
11,male,meditate,2,28,hat,plate,incong,1,624
11,male,meditate,2,29,scissors,cat,incong,1,792
11,male,meditate,2,30,carrot,carrot,cong,1,420
11,male,meditate,1,31,cup,cup,cong,1,522
11,male,meditate,1,32,cat,cat,cong,1,452
11,male,meditate,1,33,spoon,orange,incong,1,667
11,male,meditate,1,34,cake,cake,cong,1,495
11,male,meditate,1,35,boat,boat,cong,1,514
11,male,meditate,1,36,horse,anchor,incong,1,710
11,male,meditate,1,37,bus,stapler,incong,1,710
11,male,meditate,1,38,carrot,carrot,cong,1,580
11,male,meditate,1,39,tree,tree,cong,1,487
11,male,meditate,1,40,church,dog,incong,1,635
11,male,meditate,1,41,boat,lemon,incong,1,604
11,male,meditate,1,42,fork,horse,incong,1,657
11,male,meditate,1,43,star,star,cong,1,530
11,male,meditate,1,44,star,drill,incong,1,661
11,male,meditate,1,45,cake,hat,incong,1,644
11,male,meditate,2,46,cherry,tree,incong,1,658
11,male,meditate,2,47,ball,ball,cong,1,677
11,male,meditate,2,48,scissors,scissors,cong,1,427
11,male,meditate,2,49,moon,moon,cong,1,431
11,male,meditate,2,50,lemon,shoe,incong,1,672
11,male,meditate,2,51,drill,ball,incong,1,537
11,male,meditate,2,52,dog,dog,cong,1,410
11,male,meditate,2,53,stapler,stapler,cong,1,492
11,male,meditate,2,54,moon,cake,incong,1,715
11,male,meditate,2,55,anchor,boat,incong,1,702
11,male,meditate,2,56,plate,bus,incong,1,685
11,male,meditate,2,57,dog,burger,incong,1,647
11,male,meditate,2,58,apple,church,incong,1,612
11,male,meditate,2,59,fork,fork,cong,1,614
11,male,meditate,2,60,church,church,cong,1,418
12,male,meditate,1,1,plate,plate,cong,0,461
12,male,meditate,1,2,burger,burger,cong,1,525
12,male,meditate,1,3,moon,moon,cong,1,497
12,male,meditate,1,4,star,star,cong,1,481
12,male,meditate,1,5,shoe,cake,incong,1,472
12,male,meditate,1,6,pizza,shoe,incong,0,499
12,male,meditate,1,7,anchor,tree,incong,1,390
12,male,meditate,1,8,hammer,hammer,cong,1,550
12,male,meditate,1,9,tree,tree,cong,1,481
12,male,meditate,1,10,cat,fork,incong,1,382
12,male,meditate,1,11,plate,stapler,incong,1,376
12,male,meditate,1,12,spoon,spoon,cong,1,503
12,male,meditate,1,13,car,hammer,incong,1,487
12,male,meditate,1,14,carrot,carrot,cong,1,500
12,male,meditate,1,15,horse,dog,incong,1,394
12,male,meditate,2,16,car,car,cong,1,498
12,male,meditate,2,17,shoe,shoe,cong,1,558
12,male,meditate,2,18,apple,church,incong,1,486
12,male,meditate,2,19,burger,hat,incong,1,396
12,male,meditate,2,20,boat,star,incong,1,503
12,male,meditate,2,21,stapler,stapler,cong,1,477
12,male,meditate,2,22,drill,apple,incong,1,501
12,male,meditate,2,23,cup,drill,incong,1,455
12,male,meditate,2,24,hat,carrot,incong,0,460
12,male,meditate,2,25,fork,horse,incong,1,457
12,male,meditate,2,26,hat,hat,cong,1,509
12,male,meditate,2,27,stapler,cherry,incong,1,394
12,male,meditate,2,28,drill,drill,cong,1,475
12,male,meditate,2,29,apple,apple,cong,1,432
12,male,meditate,2,30,moon,orange,incong,1,375
12,male,meditate,1,31,ball,boat,incong,1,442
12,male,meditate,1,32,scissors,lemon,incong,1,368
12,male,meditate,1,33,ball,ball,cong,1,573
12,male,meditate,1,34,church,church,cong,1,592
12,male,meditate,1,35,fork,fork,cong,1,482
12,male,meditate,1,36,dog,moon,incong,1,485
12,male,meditate,1,37,cherry,scissors,incong,1,408
12,male,meditate,1,38,star,pizza,incong,1,453
12,male,meditate,1,39,cake,burger,incong,1,373
12,male,meditate,1,40,lemon,lemon,cong,1,594
12,male,meditate,1,41,church,car,incong,1,412
12,male,meditate,1,42,boat,boat,cong,1,498
12,male,meditate,1,43,cat,cat,cong,1,481
12,male,meditate,1,44,anchor,anchor,cong,1,496
12,male,meditate,1,45,orange,orange,cong,1,496
12,male,meditate,2,46,cherry,cherry,cong,1,503
12,male,meditate,2,47,dog,dog,cong,1,474
12,male,meditate,2,48,hammer,cup,incong,1,549
12,male,meditate,2,49,spoon,cat,incong,1,527
12,male,meditate,2,50,tree,anchor,incong,1,556
12,male,meditate,2,51,pizza,pizza,cong,1,413
12,male,meditate,2,52,carrot,bus,incong,1,565
12,male,meditate,2,53,scissors,scissors,cong,1,487
12,male,meditate,2,54,cake,cake,cong,1,547
12,male,meditate,2,55,orange,ball,incong,1,559
12,male,meditate,2,56,lemon,spoon,incong,1,466
12,male,meditate,2,57,bus,plate,incong,1,387
12,male,meditate,2,58,cup,cup,cong,1,480
12,male,meditate,2,59,horse,horse,cong,1,496
12,male,meditate,2,60,bus,bus,cong,1,477
13,male,meditate,1,1,burger,cup,incong,1,463
13,male,meditate,1,2,anchor,ball,incong,1,491
13,male,meditate,1,3,hammer,hammer,cong,1,524
13,male,meditate,1,4,ball,ball,cong,1,508
13,male,meditate,1,5,car,plate,incong,1,455
13,male,meditate,1,6,cake,drill,incong,1,524
13,male,meditate,1,7,boat,boat,cong,1,466
13,male,meditate,1,8,lemon,lemon,cong,1,498
13,male,meditate,1,9,carrot,carrot,cong,1,540
13,male,meditate,1,10,bus,lemon,incong,1,434
13,male,meditate,1,11,moon,moon,cong,1,501
13,male,meditate,1,12,cherry,cherry,cong,1,470
13,male,meditate,1,13,shoe,moon,incong,1,461
13,male,meditate,1,14,drill,horse,incong,1,515
13,male,meditate,1,15,star,apple,incong,1,486
13,male,meditate,2,16,tree,tree,cong,1,392
13,male,meditate,2,17,bus,bus,cong,1,401
13,male,meditate,2,18,dog,dog,cong,1,450
13,male,meditate,2,19,cat,cat,cong,1,473
13,male,meditate,2,20,plate,plate,cong,1,390
13,male,meditate,2,21,car,car,cong,1,365
13,male,meditate,2,22,pizza,pizza,cong,1,370
13,male,meditate,2,23,plate,hammer,incong,1,553
13,male,meditate,2,24,cup,cup,cong,1,380
13,male,meditate,2,25,horse,horse,cong,1,462
13,male,meditate,2,26,drill,drill,cong,1,527
13,male,meditate,2,27,scissors,burger,incong,1,404
13,male,meditate,2,28,cake,cake,cong,1,425
13,male,meditate,2,29,horse,scissors,incong,1,376
13,male,meditate,2,30,stapler,stapler,cong,1,464
13,male,meditate,1,31,cherry,church,incong,1,452
13,male,meditate,1,32,lemon,car,incong,1,530
13,male,meditate,1,33,fork,spoon,incong,1,435
13,male,meditate,1,34,dog,fork,incong,1,483
13,male,meditate,1,35,pizza,cat,incong,0,456
13,male,meditate,1,36,fork,fork,cong,0,555
13,male,meditate,1,37,tree,tree,cong,1,506
13,male,meditate,1,38,star,star,cong,1,490
13,male,meditate,1,39,cat,dog,incong,1,455
13,male,meditate,1,40,spoon,spoon,cong,1,490
13,male,meditate,1,41,burger,burger,cong,1,576
13,male,meditate,1,42,moon,shoe,incong,1,521
13,male,meditate,1,43,shoe,shoe,cong,1,514
13,male,meditate,1,44,hat,hat,cong,1,461
13,male,meditate,1,45,orange,orange,cong,1,554
13,male,meditate,2,46,church,church,cong,1,448
13,male,meditate,2,47,cup,carrot,incong,1,376
13,male,meditate,2,48,hat,stapler,incong,1,571
13,male,meditate,2,49,apple,apple,cong,1,347
13,male,meditate,2,50,ball,boat,incong,1,402
13,male,meditate,2,51,apple,anchor,incong,1,361
13,male,meditate,2,52,church,star,incong,1,385
13,male,meditate,2,53,spoon,orange,incong,1,544
13,male,meditate,2,54,boat,pizza,incong,1,373
13,male,meditate,2,55,anchor,anchor,cong,1,435
13,male,meditate,2,56,scissors,scissors,cong,1,531
13,male,meditate,2,57,carrot,bus,incong,1,510
13,male,meditate,2,58,orange,hat,incong,1,382
13,male,meditate,2,59,hammer,cake,incong,0,553
13,male,meditate,2,60,stapler,cherry,incong,1,434
14,male,meditate,1,1,ball,horse,incong,1,474
14,male,meditate,1,2,cherry,cherry,cong,1,531
14,male,meditate,1,3,hammer,hammer,cong,1,647
14,male,meditate,1,4,plate,plate,cong,1,547
14,male,meditate,1,5,hammer,cup,incong,1,448
14,male,meditate,1,6,cat,drill,incong,1,461
14,male,meditate,1,7,fork,fork,cong,1,528
14,male,meditate,1,8,boat,boat,cong,1,490
14,male,meditate,1,9,ball,ball,cong,1,493
14,male,meditate,1,10,carrot,burger,incong,1,444
14,male,meditate,1,11,tree,tree,cong,1,564
14,male,meditate,1,12,hat,hat,cong,1,654
14,male,meditate,1,13,carrot,carrot,cong,1,548
14,male,meditate,1,14,cake,church,incong,1,542
14,male,meditate,1,15,stapler,shoe,incong,1,509
14,male,meditate,2,16,horse,horse,cong,1,469
14,male,meditate,2,17,lemon,lemon,cong,1,443
14,male,meditate,2,18,anchor,anchor,cong,1,518
14,male,meditate,2,19,cake,cake,cong,1,458
14,male,meditate,2,20,scissors,scissors,cong,1,489
14,male,meditate,2,21,dog,apple,incong,1,507
14,male,meditate,2,22,lemon,lemon,cong,1,496
14,male,meditate,2,23,star,hat,incong,1,618
14,male,meditate,2,24,orange,orange,cong,1,529
14,male,meditate,2,25,spoon,spoon,cong,1,463
14,male,meditate,2,26,bus,bus,cong,1,465
14,male,meditate,2,27,cup,fork,incong,1,473
14,male,meditate,2,28,hat,spoon,incong,1,390
14,male,meditate,2,29,stapler,stapler,cong,1,578
14,male,meditate,2,30,drill,cat,incong,1,518
14,male,meditate,1,31,pizza,boat,incong,1,547
14,male,meditate,1,32,orange,hammer,incong,1,491
14,male,meditate,1,33,spoon,ball,incong,1,554
14,male,meditate,1,34,car,moon,incong,1,481
14,male,meditate,1,35,shoe,shoe,cong,1,475
14,male,meditate,1,36,dog,dog,cong,1,477
14,male,meditate,1,37,horse,tree,incong,1,496
14,male,meditate,1,38,bus,car,incong,1,484
14,male,meditate,1,39,drill,drill,cong,1,497
14,male,meditate,1,40,apple,anchor,incong,1,455
14,male,meditate,1,41,boat,pizza,incong,1,460
14,male,meditate,1,42,anchor,bus,incong,1,465
14,male,meditate,1,43,cup,cup,cong,1,478
14,male,meditate,1,44,pizza,pizza,cong,1,482
14,male,meditate,1,45,fork,dog,incong,1,478
14,male,meditate,2,46,church,church,cong,1,505
14,male,meditate,2,47,scissors,star,incong,1,485
14,male,meditate,2,48,cherry,orange,incong,1,535
14,male,meditate,2,49,cat,cat,cong,1,574
14,male,meditate,2,50,car,car,cong,1,542
14,male,meditate,2,51,moon,moon,cong,1,541
14,male,meditate,2,52,tree,scissors,incong,1,474
14,male,meditate,2,53,burger,burger,cong,1,544
14,male,meditate,2,54,star,star,cong,1,549
14,male,meditate,2,55,apple,apple,cong,1,478
14,male,meditate,2,56,church,carrot,incong,1,392
14,male,meditate,2,57,burger,plate,incong,1,521
14,male,meditate,2,58,shoe,cherry,incong,1,438
14,male,meditate,2,59,plate,stapler,incong,1,555
14,male,meditate,2,60,moon,cake,incong,1,516
15,male,meditate,1,1,drill,drill,cong,1,453
15,male,meditate,1,2,orange,orange,cong,1,471
15,male,meditate,1,3,orange,hammer,incong,1,299
15,male,meditate,1,4,drill,cake,incong,1,373
15,male,meditate,1,5,tree,lemon,incong,1,313
15,male,meditate,1,6,church,plate,incong,1,354
15,male,meditate,1,7,moon,moon,cong,1,457
15,male,meditate,1,8,cup,cup,cong,1,483
15,male,meditate,1,9,hat,hat,cong,1,375
15,male,meditate,1,10,plate,star,incong,1,351
15,male,meditate,1,11,burger,burger,cong,1,502
15,male,meditate,1,12,shoe,shoe,cong,1,492
15,male,meditate,1,13,fork,fork,cong,1,454
15,male,meditate,1,14,cup,apple,incong,1,329
15,male,meditate,1,15,horse,carrot,incong,1,307
15,male,meditate,2,16,apple,apple,cong,1,497
15,male,meditate,2,17,tree,tree,cong,1,633
15,male,meditate,2,18,church,church,cong,1,579
15,male,meditate,2,19,cake,cake,cong,1,566
15,male,meditate,2,20,anchor,anchor,cong,0,436
15,male,meditate,2,21,dog,dog,cong,1,562
15,male,meditate,2,22,cherry,scissors,incong,1,397
15,male,meditate,2,23,burger,boat,incong,1,460
15,male,meditate,2,24,hammer,orange,incong,1,349
15,male,meditate,2,25,lemon,burger,incong,0,415
15,male,meditate,2,26,car,horse,incong,0,299
15,male,meditate,2,27,lemon,lemon,cong,1,478
15,male,meditate,2,28,bus,ball,incong,1,321
15,male,meditate,2,29,scissors,scissors,cong,1,449
15,male,meditate,2,30,ball,ball,cong,1,460
15,male,meditate,1,31,scissors,car,incong,1,323
15,male,meditate,1,32,bus,bus,cong,1,540
15,male,meditate,1,33,spoon,stapler,incong,1,369
15,male,meditate,1,34,carrot,carrot,cong,1,448
15,male,meditate,1,35,hat,hat,cong,1,498
15,male,meditate,1,36,cherry,cherry,cong,0,505
15,male,meditate,1,37,star,star,cong,1,476
15,male,meditate,1,38,star,cup,incong,1,332
15,male,meditate,1,39,spoon,spoon,cong,1,474
15,male,meditate,1,40,hammer,hammer,cong,1,450
15,male,meditate,1,41,horse,horse,cong,1,450
15,male,meditate,1,42,anchor,fork,incong,1,336
15,male,meditate,1,43,pizza,pizza,cong,1,475
15,male,meditate,1,44,stapler,stapler,cong,1,526
15,male,meditate,1,45,dog,tree,incong,1,305
15,male,meditate,2,46,pizza,cherry,incong,1,329
15,male,meditate,2,47,shoe,spoon,incong,1,429
15,male,meditate,2,48,moon,dog,incong,1,342
15,male,meditate,2,49,boat,boat,cong,1,531
15,male,meditate,2,50,plate,plate,cong,1,477
15,male,meditate,2,51,carrot,anchor,incong,1,420
15,male,meditate,2,52,car,car,cong,1,478
15,male,meditate,2,53,ball,pizza,incong,1,371
15,male,meditate,2,54,cat,church,incong,1,406
15,male,meditate,2,55,cake,bus,incong,1,364
15,male,meditate,2,56,apple,drill,incong,1,291
15,male,meditate,2,57,boat,moon,incong,1,356
15,male,meditate,2,58,stapler,cat,incong,1,368
15,male,meditate,2,59,cat,cat,cong,1,502
15,male,meditate,2,60,fork,shoe,incong,1,313
16,male,meditate,1,1,stapler,carrot,incong,1,335
16,male,meditate,1,2,cake,bus,incong,1,355
16,male,meditate,1,3,cat,dog,incong,0,451
16,male,meditate,1,4,tree,tree,cong,1,497
16,male,meditate,1,5,horse,fork,incong,1,363
16,male,meditate,1,6,lemon,hat,incong,1,379
16,male,meditate,1,7,carrot,boat,incong,1,322
16,male,meditate,1,8,apple,apple,cong,1,430
16,male,meditate,1,9,boat,boat,cong,1,383
16,male,meditate,1,10,cake,cake,cong,1,404
16,male,meditate,1,11,church,burger,incong,1,308
16,male,meditate,1,12,spoon,lemon,incong,1,270
16,male,meditate,1,13,moon,church,incong,1,301
16,male,meditate,1,14,burger,burger,cong,0,391
16,male,meditate,1,15,shoe,scissors,incong,1,286
16,male,meditate,2,16,plate,cherry,incong,1,298
16,male,meditate,2,17,drill,hammer,incong,1,311
16,male,meditate,2,18,plate,plate,cong,1,583
16,male,meditate,2,19,anchor,anchor,cong,0,429
16,male,meditate,2,20,carrot,carrot,cong,1,477
16,male,meditate,2,21,shoe,shoe,cong,1,347
16,male,meditate,2,22,pizza,pizza,cong,1,436
16,male,meditate,2,23,cup,cup,cong,1,388
16,male,meditate,2,24,orange,orange,cong,1,350
16,male,meditate,2,25,cat,cat,cong,1,376
16,male,meditate,2,26,cup,cat,incong,1,407
16,male,meditate,2,27,car,car,cong,1,599
16,male,meditate,2,28,scissors,orange,incong,1,209
16,male,meditate,2,29,moon,moon,cong,1,363
16,male,meditate,2,30,scissors,scissors,cong,1,314
16,male,meditate,1,31,anchor,pizza,incong,1,283
16,male,meditate,1,32,drill,drill,cong,1,442
16,male,meditate,1,33,stapler,stapler,cong,1,475
16,male,meditate,1,34,bus,bus,cong,1,526
16,male,meditate,1,35,burger,tree,incong,1,359
16,male,meditate,1,36,boat,cake,incong,1,317
16,male,meditate,1,37,orange,cup,incong,1,290
16,male,meditate,1,38,lemon,lemon,cong,1,414
16,male,meditate,1,39,pizza,moon,incong,1,471
16,male,meditate,1,40,dog,dog,cong,1,411
16,male,meditate,1,41,hammer,ball,incong,1,284
16,male,meditate,1,42,ball,ball,cong,1,384
16,male,meditate,1,43,star,star,cong,0,358
16,male,meditate,1,44,car,apple,incong,1,390
16,male,meditate,1,45,fork,fork,cong,1,411
16,male,meditate,2,46,church,church,cong,1,429
16,male,meditate,2,47,dog,car,incong,0,306
16,male,meditate,2,48,horse,horse,cong,0,594
16,male,meditate,2,49,star,star,cong,1,332
16,male,meditate,2,50,spoon,spoon,cong,1,377
16,male,meditate,2,51,hat,plate,incong,1,421
16,male,meditate,2,52,tree,spoon,incong,1,297
16,male,meditate,2,53,fork,anchor,incong,0,259
16,male,meditate,2,54,cherry,cherry,cong,1,390
16,male,meditate,2,55,hat,hat,cong,1,365
16,male,meditate,2,56,hammer,hammer,cong,1,398
16,male,meditate,2,57,cherry,drill,incong,1,451
16,male,meditate,2,58,ball,shoe,incong,1,246
16,male,meditate,2,59,apple,horse,incong,1,301
16,male,meditate,2,60,bus,stapler,incong,1,252
17,male,meditate,1,1,fork,fork,cong,1,531
17,male,meditate,1,2,car,plate,incong,1,613
17,male,meditate,1,3,cherry,moon,incong,1,547
17,male,meditate,1,4,fork,bus,incong,1,626
17,male,meditate,1,5,carrot,cherry,incong,1,639
17,male,meditate,1,6,cake,cake,cong,1,539
17,male,meditate,1,7,moon,hammer,incong,1,601
17,male,meditate,1,8,star,star,cong,1,540
17,male,meditate,1,9,spoon,scissors,incong,1,548
17,male,meditate,1,10,bus,horse,incong,0,593
17,male,meditate,1,11,lemon,cup,incong,1,618
17,male,meditate,1,12,cat,ball,incong,1,577
17,male,meditate,1,13,hat,burger,incong,1,585
17,male,meditate,1,14,church,church,cong,1,527
17,male,meditate,1,15,shoe,stapler,incong,1,563
17,male,meditate,2,16,horse,cat,incong,1,603
17,male,meditate,2,17,scissors,scissors,cong,1,548
17,male,meditate,2,18,orange,orange,cong,0,576
17,male,meditate,2,19,burger,drill,incong,1,528
17,male,meditate,2,20,orange,cake,incong,1,598
17,male,meditate,2,21,burger,burger,cong,1,564
17,male,meditate,2,22,car,car,cong,1,538
17,male,meditate,2,23,cherry,cherry,cong,1,610
17,male,meditate,2,24,stapler,stapler,cong,1,514
17,male,meditate,2,25,lemon,lemon,cong,1,540
17,male,meditate,2,26,bus,bus,cong,1,613
17,male,meditate,2,27,dog,fork,incong,1,604
17,male,meditate,2,28,boat,hat,incong,0,599
17,male,meditate,2,29,shoe,shoe,cong,1,546
17,male,meditate,2,30,ball,anchor,incong,1,511
17,male,meditate,1,31,pizza,boat,incong,0,579
17,male,meditate,1,32,moon,moon,cong,1,536
17,male,meditate,1,33,hammer,shoe,incong,0,577
17,male,meditate,1,34,hammer,hammer,cong,1,513
17,male,meditate,1,35,pizza,pizza,cong,1,502
17,male,meditate,1,36,anchor,tree,incong,1,629
17,male,meditate,1,37,drill,orange,incong,1,561
17,male,meditate,1,38,horse,horse,cong,1,532
17,male,meditate,1,39,anchor,anchor,cong,1,580
17,male,meditate,1,40,tree,dog,incong,1,554
17,male,meditate,1,41,star,car,incong,1,637
17,male,meditate,1,42,carrot,carrot,cong,1,553
17,male,meditate,1,43,ball,ball,cong,1,564
17,male,meditate,1,44,plate,plate,cong,1,511
17,male,meditate,1,45,tree,tree,cong,1,514
17,male,meditate,2,46,drill,drill,cong,0,498
17,male,meditate,2,47,scissors,spoon,incong,0,625
17,male,meditate,2,48,cat,cat,cong,1,547
17,male,meditate,2,49,cup,carrot,incong,1,529
17,male,meditate,2,50,plate,apple,incong,1,631
17,male,meditate,2,51,stapler,star,incong,1,726
17,male,meditate,2,52,dog,dog,cong,1,556
17,male,meditate,2,53,church,lemon,incong,0,730
17,male,meditate,2,54,hat,hat,cong,1,500
17,male,meditate,2,55,apple,apple,cong,1,539
17,male,meditate,2,56,cake,church,incong,1,688
17,male,meditate,2,57,boat,boat,cong,1,515
17,male,meditate,2,58,spoon,spoon,cong,1,573
17,male,meditate,2,59,cup,cup,cong,1,504
17,male,meditate,2,60,apple,pizza,incong,1,612
18,male,meditate,1,1,boat,boat,cong,1,475
18,male,meditate,1,2,moon,plate,incong,1,622
18,male,meditate,1,3,scissors,bus,incong,1,620
18,male,meditate,1,4,boat,cherry,incong,1,653
18,male,meditate,1,5,star,stapler,incong,1,600
18,male,meditate,1,6,shoe,pizza,incong,1,692
18,male,meditate,1,7,cup,cup,cong,1,500
18,male,meditate,1,8,hammer,cake,incong,0,626
18,male,meditate,1,9,cherry,moon,incong,1,626
18,male,meditate,1,10,carrot,carrot,cong,1,531
18,male,meditate,1,11,ball,lemon,incong,1,655
18,male,meditate,1,12,car,car,cong,1,502
18,male,meditate,1,13,spoon,spoon,cong,1,527
18,male,meditate,1,14,stapler,ball,incong,1,626
18,male,meditate,1,15,hat,hat,cong,1,472
18,male,meditate,2,16,orange,orange,cong,1,550
18,male,meditate,2,17,anchor,anchor,cong,1,428
18,male,meditate,2,18,bus,bus,cong,1,570
18,male,meditate,2,19,stapler,stapler,cong,1,507
18,male,meditate,2,20,pizza,pizza,cong,1,426
18,male,meditate,2,21,apple,apple,cong,1,498
18,male,meditate,2,22,carrot,cup,incong,1,512
18,male,meditate,2,23,dog,dog,cong,1,475
18,male,meditate,2,24,burger,star,incong,1,657
18,male,meditate,2,25,lemon,lemon,cong,1,474
18,male,meditate,2,26,cake,cake,cong,1,505
18,male,meditate,2,27,hammer,hammer,cong,1,447
18,male,meditate,2,28,spoon,drill,incong,1,516
18,male,meditate,2,29,fork,fork,cong,1,478
18,male,meditate,2,30,horse,scissors,incong,1,706
18,male,meditate,1,31,drill,anchor,incong,1,654
18,male,meditate,1,32,plate,tree,incong,1,697
18,male,meditate,1,33,church,church,cong,1,491
18,male,meditate,1,34,plate,plate,cong,1,532
18,male,meditate,1,35,hat,hat,cong,1,747
18,male,meditate,1,36,cherry,cherry,cong,0,563
18,male,meditate,1,37,ball,ball,cong,1,500
18,male,meditate,1,38,fork,spoon,incong,1,741
18,male,meditate,1,39,star,star,cong,1,591
18,male,meditate,1,40,pizza,shoe,incong,1,619
18,male,meditate,1,41,drill,drill,cong,1,519
18,male,meditate,1,42,dog,burger,incong,1,624
18,male,meditate,1,43,moon,moon,cong,1,514
18,male,meditate,1,44,burger,burger,cong,1,527
18,male,meditate,1,45,shoe,shoe,cong,1,483
18,male,meditate,2,46,car,dog,incong,1,664
18,male,meditate,2,47,scissors,scissors,cong,1,460
18,male,meditate,2,48,cup,carrot,incong,1,668
18,male,meditate,2,49,cat,cat,cong,1,470
18,male,meditate,2,50,tree,car,incong,1,655
18,male,meditate,2,51,apple,apple,cong,1,659
18,male,meditate,2,52,horse,horse,cong,1,393
18,male,meditate,2,53,orange,church,incong,1,566
18,male,meditate,2,54,cake,hammer,incong,1,577
18,male,meditate,2,55,cat,cat,cong,1,843
18,male,meditate,2,56,tree,tree,cong,1,422
18,male,meditate,2,57,anchor,orange,incong,1,574
18,male,meditate,2,58,lemon,boat,incong,1,521
18,male,meditate,2,59,church,fork,incong,1,577
18,male,meditate,2,60,bus,horse,incong,1,585
19,male,meditate,1,1,cup,stapler,incong,1,546
19,male,meditate,1,2,cat,star,incong,1,494
19,male,meditate,1,3,bus,bus,cong,1,454
19,male,meditate,1,4,apple,apple,cong,1,570
19,male,meditate,1,5,dog,dog,cong,1,464
19,male,meditate,1,6,cup,cup,cong,1,465
19,male,meditate,1,7,car,church,incong,1,495
19,male,meditate,1,8,star,star,cong,1,480
19,male,meditate,1,9,cherry,cherry,cong,1,475
19,male,meditate,1,10,fork,fork,cong,1,521
19,male,meditate,1,11,shoe,shoe,cong,1,493
19,male,meditate,1,12,hat,hat,cong,1,442
19,male,meditate,1,13,plate,plate,cong,1,477
19,male,meditate,1,14,ball,cherry,incong,1,591
19,male,meditate,1,15,stapler,fork,incong,1,589
19,male,meditate,2,16,tree,tree,cong,1,445
19,male,meditate,2,17,cherry,burger,incong,1,537
19,male,meditate,2,18,stapler,stapler,cong,1,471
19,male,meditate,2,19,star,boat,incong,1,583
19,male,meditate,2,20,scissors,car,incong,1,574
19,male,meditate,2,21,hammer,scissors,incong,1,520
19,male,meditate,2,22,lemon,apple,incong,1,512
19,male,meditate,2,23,lemon,lemon,cong,1,484
19,male,meditate,2,24,burger,burger,cong,1,395
19,male,meditate,2,25,shoe,cake,incong,1,430
19,male,meditate,2,26,plate,pizza,incong,1,525
19,male,meditate,2,27,drill,drill,cong,1,447
19,male,meditate,2,28,church,church,cong,1,485
19,male,meditate,2,29,anchor,anchor,cong,1,599
19,male,meditate,2,30,pizza,pizza,cong,1,581
19,male,meditate,1,31,cake,cake,cong,1,471
19,male,meditate,1,32,car,car,cong,1,490
19,male,meditate,1,33,dog,horse,incong,1,529
19,male,meditate,1,34,boat,cup,incong,1,501
19,male,meditate,1,35,boat,boat,cong,1,485
19,male,meditate,1,36,bus,carrot,incong,1,544
19,male,meditate,1,37,spoon,hammer,incong,1,523
19,male,meditate,1,38,pizza,tree,incong,1,526
19,male,meditate,1,39,orange,dog,incong,1,490
19,male,meditate,1,40,apple,anchor,incong,1,600
19,male,meditate,1,41,moon,shoe,incong,1,527
19,male,meditate,1,42,scissors,scissors,cong,1,528
19,male,meditate,1,43,hat,hat,cong,1,548
19,male,meditate,1,44,orange,orange,cong,1,485
19,male,meditate,1,45,tree,lemon,incong,1,493
19,male,meditate,2,46,moon,moon,cong,1,456
19,male,meditate,2,47,anchor,orange,incong,1,443
19,male,meditate,2,48,hammer,hammer,cong,1,437
19,male,meditate,2,49,spoon,spoon,cong,1,547
19,male,meditate,2,50,cat,cat,cong,1,443
19,male,meditate,2,51,burger,ball,incong,1,534
19,male,meditate,2,52,carrot,carrot,cong,1,493
19,male,meditate,2,53,horse,horse,cong,1,451
19,male,meditate,2,54,cake,cat,incong,1,459
19,male,meditate,2,55,fork,bus,incong,1,518
19,male,meditate,2,56,drill,drill,cong,1,458
19,male,meditate,2,57,ball,ball,cong,1,393
19,male,meditate,2,58,church,plate,incong,1,605
19,male,meditate,2,59,horse,moon,incong,1,693
19,male,meditate,2,60,carrot,spoon,incong,1,718
20,male,meditate,1,1,fork,fork,cong,1,458
20,male,meditate,1,2,lemon,hammer,incong,1,485
20,male,meditate,1,3,cherry,cherry,cong,1,455
20,male,meditate,1,4,cup,cup,cong,1,477
20,male,meditate,1,5,bus,bus,cong,1,456
20,male,meditate,1,6,star,star,cong,1,500
20,male,meditate,1,7,pizza,pizza,cong,1,519
20,male,meditate,1,8,cake,cake,cong,1,525
20,male,meditate,1,9,scissors,scissors,cong,1,444
20,male,meditate,1,10,spoon,spoon,cong,0,451
20,male,meditate,1,11,tree,tree,cong,1,516
20,male,meditate,1,12,hammer,cake,incong,1,478
20,male,meditate,1,13,drill,scissors,incong,1,497
20,male,meditate,1,14,shoe,horse,incong,1,505
20,male,meditate,1,15,hammer,hammer,cong,1,544
20,male,meditate,2,16,stapler,stapler,cong,1,559
20,male,meditate,2,17,lemon,lemon,cong,1,476
20,male,meditate,2,18,dog,church,incong,1,508
20,male,meditate,2,19,plate,plate,cong,1,486
20,male,meditate,2,20,boat,pizza,incong,1,504
20,male,meditate,2,21,boat,boat,cong,1,557
20,male,meditate,2,22,ball,drill,incong,1,396
20,male,meditate,2,23,tree,burger,incong,1,465
20,male,meditate,2,24,horse,horse,cong,1,507
20,male,meditate,2,25,star,star,cong,1,635
20,male,meditate,2,26,cat,stapler,incong,1,503
20,male,meditate,2,27,drill,drill,cong,1,440
20,male,meditate,2,28,bus,orange,incong,1,506
20,male,meditate,2,29,cat,cat,cong,1,486
20,male,meditate,2,30,cup,car,incong,1,565
20,male,meditate,1,31,car,car,cong,1,553
20,male,meditate,1,32,apple,apple,cong,1,514
20,male,meditate,1,33,burger,burger,cong,1,547
20,male,meditate,1,34,apple,plate,incong,1,448
20,male,meditate,1,35,scissors,lemon,incong,1,459
20,male,meditate,1,36,stapler,fork,incong,1,492
20,male,meditate,1,37,hat,apple,incong,1,567
20,male,meditate,1,38,orange,ball,incong,1,453
20,male,meditate,1,39,car,tree,incong,1,514
20,male,meditate,1,40,moon,moon,cong,1,433
20,male,meditate,1,41,church,church,cong,1,450
20,male,meditate,1,42,orange,orange,cong,1,459
20,male,meditate,1,43,anchor,boat,incong,1,567
20,male,meditate,1,44,cake,hat,incong,1,426
20,male,meditate,1,45,carrot,carrot,cong,1,558
20,male,meditate,2,46,fork,dog,incong,1,524
20,male,meditate,2,47,carrot,cherry,incong,1,477
20,male,meditate,2,48,hat,hat,cong,1,465
20,male,meditate,2,49,spoon,bus,incong,1,443
20,male,meditate,2,50,dog,dog,cong,1,522
20,male,meditate,2,51,ball,ball,cong,1,503
20,male,meditate,2,52,pizza,shoe,incong,1,365
20,male,meditate,2,53,horse,anchor,incong,1,533
20,male,meditate,2,54,burger,spoon,incong,1,614
20,male,meditate,2,55,church,cup,incong,1,543
20,male,meditate,2,56,cherry,cat,incong,0,490
20,male,meditate,2,57,shoe,shoe,cong,1,478
20,male,meditate,2,58,moon,moon,cong,1,402
20,male,meditate,2,59,plate,carrot,incong,1,443
20,male,meditate,2,60,anchor,anchor,cong,1,557
21,male,meditate,1,1,dog,scissors,incong,1,545
21,male,meditate,1,2,hat,fork,incong,1,516
21,male,meditate,1,3,drill,star,incong,1,573
21,male,meditate,1,4,ball,burger,incong,1,573
21,male,meditate,1,5,cup,cup,cong,1,519
21,male,meditate,1,6,lemon,lemon,cong,1,531
21,male,meditate,1,7,pizza,pizza,cong,1,441
21,male,meditate,1,8,moon,moon,cong,1,446
21,male,meditate,1,9,scissors,drill,incong,1,543
21,male,meditate,1,10,car,car,cong,1,517
21,male,meditate,1,11,boat,moon,incong,1,491
21,male,meditate,1,12,carrot,carrot,cong,1,434
21,male,meditate,1,13,orange,lemon,incong,1,528
21,male,meditate,1,14,star,apple,incong,1,557
21,male,meditate,1,15,bus,plate,incong,1,505
21,male,meditate,2,16,horse,horse,cong,1,467
21,male,meditate,2,17,burger,church,incong,1,578
21,male,meditate,2,18,dog,dog,cong,1,467
21,male,meditate,2,19,plate,stapler,incong,1,492
21,male,meditate,2,20,spoon,hat,incong,1,765
21,male,meditate,2,21,ball,ball,cong,1,462
21,male,meditate,2,22,plate,plate,cong,1,460
21,male,meditate,2,23,fork,fork,cong,1,508
21,male,meditate,2,24,hammer,hammer,cong,1,513
21,male,meditate,2,25,apple,apple,cong,0,522
21,male,meditate,2,26,cherry,cake,incong,1,545
21,male,meditate,2,27,church,church,cong,1,591
21,male,meditate,2,28,apple,spoon,incong,1,484
21,male,meditate,2,29,tree,tree,cong,1,507
21,male,meditate,2,30,burger,burger,cong,1,488
21,male,meditate,1,31,cat,orange,incong,1,501
21,male,meditate,1,32,shoe,shoe,cong,1,475
21,male,meditate,1,33,lemon,ball,incong,1,512
21,male,meditate,1,34,cake,cake,cong,1,487
21,male,meditate,1,35,drill,drill,cong,1,453
21,male,meditate,1,36,horse,horse,cong,1,448
21,male,meditate,1,37,tree,cherry,incong,1,540
21,male,meditate,1,38,fork,dog,incong,1,524
21,male,meditate,1,39,star,star,cong,1,453
21,male,meditate,1,40,bus,bus,cong,1,521
21,male,meditate,1,41,orange,orange,cong,1,442
21,male,meditate,1,42,stapler,pizza,incong,1,494
21,male,meditate,1,43,scissors,scissors,cong,1,477
21,male,meditate,1,44,shoe,bus,incong,1,490
21,male,meditate,1,45,cup,boat,incong,1,482
21,male,meditate,2,46,church,carrot,incong,1,490
21,male,meditate,2,47,spoon,spoon,cong,1,604
21,male,meditate,2,48,anchor,anchor,cong,1,551
21,male,meditate,2,49,carrot,hammer,incong,1,562
21,male,meditate,2,50,hammer,shoe,incong,1,669
21,male,meditate,2,51,pizza,car,incong,1,466
21,male,meditate,2,52,boat,boat,cong,1,505
21,male,meditate,2,53,stapler,stapler,cong,1,530
21,male,meditate,2,54,anchor,anchor,cong,1,480
21,male,meditate,2,55,cherry,cherry,cong,1,522
21,male,meditate,2,56,cat,cat,cong,1,571
21,male,meditate,2,57,car,cat,incong,1,608
21,male,meditate,2,58,moon,cup,incong,1,584
21,male,meditate,2,59,hat,hat,cong,1,508
21,male,meditate,2,60,cake,tree,incong,1,524
22,male,meditate,1,1,burger,anchor,incong,0,790
22,male,meditate,1,2,shoe,tree,incong,1,724
22,male,meditate,1,3,fork,fork,cong,1,675
22,male,meditate,1,4,horse,horse,cong,1,517
22,male,meditate,1,5,dog,dog,cong,1,489
22,male,meditate,1,6,cake,cake,cong,1,487
22,male,meditate,1,7,hammer,burger,incong,1,676
22,male,meditate,1,8,drill,apple,incong,1,705
22,male,meditate,1,9,carrot,star,incong,1,789
22,male,meditate,1,10,stapler,church,incong,1,846
22,male,meditate,1,11,cat,cat,cong,1,568
22,male,meditate,1,12,plate,orange,incong,1,684
22,male,meditate,1,13,hat,cat,incong,1,742
22,male,meditate,1,14,hat,hat,cong,1,519
22,male,meditate,1,15,lemon,hammer,incong,1,749
22,male,meditate,2,16,boat,cherry,incong,0,703
22,male,meditate,2,17,anchor,anchor,cong,1,561
22,male,meditate,2,18,anchor,bus,incong,0,856
22,male,meditate,2,19,moon,pizza,incong,1,737
22,male,meditate,2,20,bus,bus,cong,1,729
22,male,meditate,2,21,car,lemon,incong,1,874
22,male,meditate,2,22,cherry,horse,incong,1,812
22,male,meditate,2,23,apple,hat,incong,1,763
22,male,meditate,2,24,bus,carrot,incong,0,638
22,male,meditate,2,25,scissors,scissors,cong,1,559
22,male,meditate,2,26,stapler,stapler,cong,1,618
22,male,meditate,2,27,tree,scissors,incong,1,746
22,male,meditate,2,28,hammer,hammer,cong,1,593
22,male,meditate,2,29,tree,tree,cong,1,579
22,male,meditate,2,30,pizza,pizza,cong,1,511
22,male,meditate,1,31,drill,drill,cong,1,488
22,male,meditate,1,32,pizza,spoon,incong,0,672
22,male,meditate,1,33,carrot,carrot,cong,1,532
22,male,meditate,1,34,boat,boat,cong,1,509
22,male,meditate,1,35,moon,moon,cong,1,494
22,male,meditate,1,36,plate,plate,cong,1,550
22,male,meditate,1,37,scissors,stapler,incong,1,687
22,male,meditate,1,38,cat,cake,incong,1,660
22,male,meditate,1,39,ball,boat,incong,1,663
22,male,meditate,1,40,ball,ball,cong,1,550
22,male,meditate,1,41,fork,fork,cong,1,517
22,male,meditate,1,42,star,cup,incong,1,704
22,male,meditate,1,43,orange,orange,cong,1,536
22,male,meditate,1,44,lemon,lemon,cong,1,501
22,male,meditate,1,45,horse,car,incong,1,746
22,male,meditate,2,46,spoon,drill,incong,1,821
22,male,meditate,2,47,church,church,cong,1,537
22,male,meditate,2,48,star,star,cong,1,673
22,male,meditate,2,49,church,shoe,incong,1,708
22,male,meditate,2,50,cake,dog,incong,1,922
22,male,meditate,2,51,dog,moon,incong,1,795
22,male,meditate,2,52,cup,cup,cong,1,597
22,male,meditate,2,53,cherry,cherry,cong,1,585
22,male,meditate,2,54,orange,plate,incong,1,677
22,male,meditate,2,55,cup,ball,incong,1,736
22,male,meditate,2,56,car,car,cong,1,617
22,male,meditate,2,57,shoe,shoe,cong,1,633
22,male,meditate,2,58,apple,apple,cong,1,515
22,male,meditate,2,59,spoon,spoon,cong,1,534
22,male,meditate,2,60,burger,burger,cong,1,534
23,male,meditate,1,1,scissors,moon,incong,1,357
23,male,meditate,1,2,horse,horse,cong,0,470
23,male,meditate,1,3,cat,cat,cong,1,548
23,male,meditate,1,4,dog,dog,cong,1,475
23,male,meditate,1,5,boat,boat,cong,1,470
23,male,meditate,1,6,cat,bus,incong,1,389
23,male,meditate,1,7,fork,fork,cong,1,544
23,male,meditate,1,8,church,church,cong,0,489
23,male,meditate,1,9,hat,drill,incong,1,449
23,male,meditate,1,10,cup,spoon,incong,1,387
23,male,meditate,1,11,anchor,anchor,cong,1,454
23,male,meditate,1,12,tree,tree,cong,1,454
23,male,meditate,1,13,ball,apple,incong,1,488
23,male,meditate,1,14,lemon,lemon,cong,1,464
23,male,meditate,1,15,pizza,pizza,cong,1,406
23,male,meditate,2,16,drill,orange,incong,0,306
23,male,meditate,2,17,moon,cake,incong,1,437
23,male,meditate,2,18,plate,plate,cong,1,465
23,male,meditate,2,19,spoon,stapler,incong,1,421
23,male,meditate,2,20,fork,plate,incong,1,329
23,male,meditate,2,21,bus,boat,incong,1,521
23,male,meditate,2,22,apple,apple,cong,1,464
23,male,meditate,2,23,cherry,cherry,cong,1,504
23,male,meditate,2,24,tree,ball,incong,1,379
23,male,meditate,2,25,car,hammer,incong,1,434
23,male,meditate,2,26,spoon,spoon,cong,1,648
23,male,meditate,2,27,ball,ball,cong,1,452
23,male,meditate,2,28,church,horse,incong,1,391
23,male,meditate,2,29,hat,hat,cong,1,550
23,male,meditate,2,30,orange,lemon,incong,1,442
23,male,meditate,1,31,drill,drill,cong,1,506
23,male,meditate,1,32,cake,fork,incong,1,366
23,male,meditate,1,33,cherry,carrot,incong,1,419
23,male,meditate,1,34,carrot,carrot,cong,1,465
23,male,meditate,1,35,star,star,cong,1,542
23,male,meditate,1,36,hammer,hammer,cong,1,484
23,male,meditate,1,37,anchor,cat,incong,1,359
23,male,meditate,1,38,scissors,scissors,cong,1,469
23,male,meditate,1,39,apple,scissors,incong,1,361
23,male,meditate,1,40,boat,burger,incong,1,450
23,male,meditate,1,41,stapler,stapler,cong,1,511
23,male,meditate,1,42,moon,moon,cong,1,449
23,male,meditate,1,43,orange,orange,cong,1,448
23,male,meditate,1,44,shoe,shoe,cong,1,454
23,male,meditate,1,45,cake,cake,cong,1,545
23,male,meditate,2,46,car,car,cong,1,406
23,male,meditate,2,47,cup,cup,cong,1,557
23,male,meditate,2,48,star,shoe,incong,1,404
23,male,meditate,2,49,horse,cup,incong,1,470
23,male,meditate,2,50,stapler,car,incong,1,330
23,male,meditate,2,51,plate,dog,incong,1,418
23,male,meditate,2,52,hammer,anchor,incong,1,391
23,male,meditate,2,53,burger,hat,incong,1,383
23,male,meditate,2,54,lemon,tree,incong,1,436
23,male,meditate,2,55,carrot,cherry,incong,1,349
23,male,meditate,2,56,dog,star,incong,1,556
23,male,meditate,2,57,pizza,pizza,cong,1,530
23,male,meditate,2,58,shoe,church,incong,1,383
23,male,meditate,2,59,burger,burger,cong,1,516
23,male,meditate,2,60,bus,bus,cong,1,555
24,male,meditate,1,1,ball,ball,cong,0,488
24,male,meditate,1,2,pizza,cup,incong,1,434
24,male,meditate,1,3,star,star,cong,1,563
24,male,meditate,1,4,drill,stapler,incong,1,465
24,male,meditate,1,5,fork,horse,incong,1,383
24,male,meditate,1,6,car,shoe,incong,1,352
24,male,meditate,1,7,anchor,orange,incong,1,393
24,male,meditate,1,8,tree,scissors,incong,1,373
24,male,meditate,1,9,carrot,apple,incong,1,355
24,male,meditate,1,10,car,car,cong,1,405
24,male,meditate,1,11,shoe,plate,incong,1,492
24,male,meditate,1,12,cup,hammer,incong,1,437
24,male,meditate,1,13,apple,apple,cong,1,441
24,male,meditate,1,14,moon,carrot,incong,1,418
24,male,meditate,1,15,hammer,ball,incong,1,388
24,male,meditate,2,16,plate,plate,cong,1,533
24,male,meditate,2,17,bus,bus,cong,1,434
24,male,meditate,2,18,drill,drill,cong,1,516
24,male,meditate,2,19,lemon,fork,incong,1,487
24,male,meditate,2,20,apple,moon,incong,1,461
24,male,meditate,2,21,orange,orange,cong,1,508
24,male,meditate,2,22,pizza,pizza,cong,1,487
24,male,meditate,2,23,scissors,scissors,cong,1,458
24,male,meditate,2,24,cherry,lemon,incong,1,496
24,male,meditate,2,25,spoon,spoon,cong,1,450
24,male,meditate,2,26,moon,moon,cong,1,578
24,male,meditate,2,27,bus,boat,incong,1,478
24,male,meditate,2,28,lemon,lemon,cong,1,458
24,male,meditate,2,29,cup,cup,cong,1,620
24,male,meditate,2,30,boat,boat,cong,1,450
24,male,meditate,1,31,burger,car,incong,1,351
24,male,meditate,1,32,star,burger,incong,1,404
24,male,meditate,1,33,horse,spoon,incong,0,531
24,male,meditate,1,34,plate,drill,incong,1,376
24,male,meditate,1,35,tree,tree,cong,1,444
24,male,meditate,1,36,cake,cake,cong,1,490
24,male,meditate,1,37,cherry,cherry,cong,1,448
24,male,meditate,1,38,cake,hat,incong,0,474
24,male,meditate,1,39,dog,dog,cong,1,532
24,male,meditate,1,40,hammer,hammer,cong,1,489
24,male,meditate,1,41,orange,cake,incong,0,417
24,male,meditate,1,42,horse,horse,cong,1,484
24,male,meditate,1,43,cat,star,incong,1,362
24,male,meditate,1,44,dog,pizza,incong,1,369
24,male,meditate,1,45,church,church,cong,1,492
24,male,meditate,2,46,cat,cat,cong,1,446
24,male,meditate,2,47,spoon,cherry,incong,1,500
24,male,meditate,2,48,anchor,anchor,cong,1,587
24,male,meditate,2,49,hat,hat,cong,1,563
24,male,meditate,2,50,church,bus,incong,1,395
24,male,meditate,2,51,ball,tree,incong,1,507
24,male,meditate,2,52,stapler,dog,incong,1,402
24,male,meditate,2,53,scissors,cat,incong,1,429
24,male,meditate,2,54,carrot,carrot,cong,1,494
24,male,meditate,2,55,hat,anchor,incong,1,428
24,male,meditate,2,56,shoe,shoe,cong,0,550
24,male,meditate,2,57,fork,fork,cong,1,495
24,male,meditate,2,58,stapler,stapler,cong,1,421
24,male,meditate,2,59,burger,burger,cong,1,520
24,male,meditate,2,60,boat,church,incong,1,393
25,male,meditate,1,1,church,orange,incong,1,380
25,male,meditate,1,2,cat,ball,incong,1,430
25,male,meditate,1,3,ball,car,incong,1,366
25,male,meditate,1,4,hammer,hammer,cong,1,508
25,male,meditate,1,5,cup,hammer,incong,1,395
25,male,meditate,1,6,bus,anchor,incong,0,338
25,male,meditate,1,7,boat,boat,cong,1,513
25,male,meditate,1,8,lemon,lemon,cong,1,485
25,male,meditate,1,9,hat,hat,cong,1,521
25,male,meditate,1,10,hat,plate,incong,1,373
25,male,meditate,1,11,horse,burger,incong,1,416
25,male,meditate,1,12,burger,horse,incong,1,404
25,male,meditate,1,13,star,tree,incong,1,404
25,male,meditate,1,14,orange,drill,incong,1,420
25,male,meditate,1,15,horse,horse,cong,1,501
25,male,meditate,2,16,cake,cake,cong,1,462
25,male,meditate,2,17,dog,apple,incong,1,421
25,male,meditate,2,18,fork,scissors,incong,1,340
25,male,meditate,2,19,drill,star,incong,1,336
25,male,meditate,2,20,anchor,cat,incong,1,505
25,male,meditate,2,21,tree,tree,cong,1,490
25,male,meditate,2,22,shoe,dog,incong,1,304
25,male,meditate,2,23,scissors,scissors,cong,1,547
25,male,meditate,2,24,cup,cup,cong,1,619
25,male,meditate,2,25,tree,fork,incong,1,591
25,male,meditate,2,26,drill,drill,cong,1,431
25,male,meditate,2,27,spoon,hat,incong,1,429
25,male,meditate,2,28,stapler,stapler,cong,1,535
25,male,meditate,2,29,moon,moon,cong,1,539
25,male,meditate,2,30,cherry,lemon,incong,1,445
25,male,meditate,1,31,orange,orange,cong,1,496
25,male,meditate,1,32,apple,apple,cong,1,474
25,male,meditate,1,33,car,car,cong,1,482
25,male,meditate,1,34,apple,bus,incong,1,360
25,male,meditate,1,35,burger,burger,cong,1,481
25,male,meditate,1,36,ball,ball,cong,1,483
25,male,meditate,1,37,shoe,shoe,cong,1,492
25,male,meditate,1,38,moon,carrot,incong,1,412
25,male,meditate,1,39,church,church,cong,1,498
25,male,meditate,1,40,star,star,cong,1,501
25,male,meditate,1,41,plate,plate,cong,1,529
25,male,meditate,1,42,boat,spoon,incong,1,344
25,male,meditate,1,43,cherry,cherry,cong,1,488
25,male,meditate,1,44,carrot,cup,incong,1,437
25,male,meditate,1,45,fork,fork,cong,1,494
25,male,meditate,2,46,cat,cat,cong,1,459
25,male,meditate,2,47,spoon,spoon,cong,1,586
25,male,meditate,2,48,dog,dog,cong,1,491
25,male,meditate,2,49,car,moon,incong,1,366
25,male,meditate,2,50,scissors,stapler,incong,1,392
25,male,meditate,2,51,pizza,pizza,cong,1,505
25,male,meditate,2,52,hammer,church,incong,1,303
25,male,meditate,2,53,plate,pizza,incong,1,465
25,male,meditate,2,54,pizza,shoe,incong,0,356
25,male,meditate,2,55,stapler,boat,incong,1,509
25,male,meditate,2,56,lemon,cherry,incong,1,279
25,male,meditate,2,57,cake,cake,cong,1,486
25,male,meditate,2,58,anchor,anchor,cong,1,473
25,male,meditate,2,59,bus,bus,cong,1,525
25,male,meditate,2,60,carrot,carrot,cong,1,580
26,male,meditate,1,1,fork,fork,cong,1,565
26,male,meditate,1,2,dog,moon,incong,1,378
26,male,meditate,1,3,cake,cake,cong,1,447
26,male,meditate,1,4,car,car,cong,1,471
26,male,meditate,1,5,hammer,tree,incong,1,444
26,male,meditate,1,6,orange,orange,cong,1,498
26,male,meditate,1,7,burger,burger,cong,1,543
26,male,meditate,1,8,plate,carrot,incong,1,490
26,male,meditate,1,9,shoe,shoe,cong,1,421
26,male,meditate,1,10,tree,burger,incong,1,384
26,male,meditate,1,11,cat,cat,cong,1,524
26,male,meditate,1,12,church,church,cong,1,434
26,male,meditate,1,13,cake,bus,incong,1,397
26,male,meditate,1,14,fork,plate,incong,1,496
26,male,meditate,1,15,ball,shoe,incong,1,383
26,male,meditate,2,16,stapler,stapler,cong,1,452
26,male,meditate,2,17,bus,bus,cong,1,469
26,male,meditate,2,18,horse,horse,cong,1,371
26,male,meditate,2,19,cup,cup,cong,1,623
26,male,meditate,2,20,pizza,hammer,incong,1,536
26,male,meditate,2,21,scissors,scissors,cong,1,433
26,male,meditate,2,22,apple,stapler,incong,1,467
26,male,meditate,2,23,apple,apple,cong,0,421
26,male,meditate,2,24,star,boat,incong,1,399
26,male,meditate,2,25,car,hat,incong,1,525
26,male,meditate,2,26,spoon,spoon,cong,1,368
26,male,meditate,2,27,cherry,cherry,cong,1,537
26,male,meditate,2,28,lemon,dog,incong,1,462
26,male,meditate,2,29,ball,ball,cong,1,593
26,male,meditate,2,30,boat,pizza,incong,1,389
26,male,meditate,1,31,hammer,hammer,cong,1,429
26,male,meditate,1,32,shoe,ball,incong,1,443
26,male,meditate,1,33,tree,tree,cong,1,427
26,male,meditate,1,34,dog,dog,cong,1,541
26,male,meditate,1,35,cherry,orange,incong,1,394
26,male,meditate,1,36,moon,moon,cong,1,481
26,male,meditate,1,37,orange,cat,incong,1,387
26,male,meditate,1,38,carrot,star,incong,1,448
26,male,meditate,1,39,pizza,pizza,cong,1,421
26,male,meditate,1,40,lemon,lemon,cong,1,428
26,male,meditate,1,41,hat,hat,cong,1,438
26,male,meditate,1,42,bus,car,incong,1,471
26,male,meditate,1,43,boat,boat,cong,1,492
26,male,meditate,1,44,carrot,carrot,cong,1,465
26,male,meditate,1,45,plate,plate,cong,1,435
26,male,meditate,2,46,anchor,anchor,cong,1,454
26,male,meditate,2,47,horse,anchor,incong,1,458
26,male,meditate,2,48,drill,cup,incong,1,366
26,male,meditate,2,49,cat,scissors,incong,1,663
26,male,meditate,2,50,spoon,spoon,cong,1,359
26,male,meditate,2,51,burger,fork,incong,1,357
26,male,meditate,2,52,hat,apple,incong,1,656
26,male,meditate,2,53,cup,lemon,incong,1,480
26,male,meditate,2,54,scissors,drill,incong,1,456
26,male,meditate,2,55,star,star,cong,1,599
26,male,meditate,2,56,church,cherry,incong,1,312
26,male,meditate,2,57,anchor,horse,incong,1,520
26,male,meditate,2,58,moon,church,incong,1,498
26,male,meditate,2,59,stapler,cake,incong,1,519
26,male,meditate,2,60,drill,drill,cong,1,413
27,male,meditate,1,1,stapler,lemon,incong,1,545
27,male,meditate,1,2,lemon,lemon,cong,1,475
27,male,meditate,1,3,pizza,pizza,cong,1,450
27,male,meditate,1,4,tree,hammer,incong,1,590
27,male,meditate,1,5,dog,fork,incong,1,511
27,male,meditate,1,6,star,burger,incong,1,556
27,male,meditate,1,7,shoe,shoe,cong,1,497
27,male,meditate,1,8,apple,apple,cong,1,511
27,male,meditate,1,9,fork,fork,cong,1,471
27,male,meditate,1,10,cake,cake,cong,1,468
27,male,meditate,1,11,anchor,anchor,cong,1,485
27,male,meditate,1,12,hat,hat,cong,1,503
27,male,meditate,1,13,car,car,cong,1,529
27,male,meditate,1,14,car,church,incong,1,509
27,male,meditate,1,15,spoon,orange,incong,1,599
27,male,meditate,2,16,moon,moon,cong,1,557
27,male,meditate,2,17,shoe,shoe,cong,1,597
27,male,meditate,2,18,hat,star,incong,1,648
27,male,meditate,2,19,plate,spoon,incong,1,738
27,male,meditate,2,20,cat,ball,incong,1,659
27,male,meditate,2,21,boat,boat,cong,1,467
27,male,meditate,2,22,hammer,hammer,cong,1,524
27,male,meditate,2,23,church,hat,incong,1,550
27,male,meditate,2,24,ball,cherry,incong,1,678
27,male,meditate,2,25,cup,cup,cong,1,587
27,male,meditate,2,26,drill,drill,cong,1,617
27,male,meditate,2,27,star,star,cong,1,618
27,male,meditate,2,28,scissors,horse,incong,1,566
27,male,meditate,2,29,dog,dog,cong,1,535
27,male,meditate,2,30,scissors,scissors,cong,1,572
27,male,meditate,1,31,horse,horse,cong,1,444
27,male,meditate,1,32,apple,scissors,incong,1,502
27,male,meditate,1,33,pizza,plate,incong,1,564
27,male,meditate,1,34,spoon,spoon,cong,1,448
27,male,meditate,1,35,orange,orange,cong,0,489
27,male,meditate,1,36,carrot,carrot,cong,1,469
27,male,meditate,1,37,plate,plate,cong,1,506
27,male,meditate,1,38,anchor,dog,incong,1,516
27,male,meditate,1,39,burger,burger,cong,1,492
27,male,meditate,1,40,fork,apple,incong,1,567
27,male,meditate,1,41,bus,bus,cong,1,502
27,male,meditate,1,42,drill,bus,incong,0,572
27,male,meditate,1,43,church,church,cong,1,579
27,male,meditate,1,44,cherry,carrot,incong,1,646
27,male,meditate,1,45,boat,cup,incong,1,583
27,male,meditate,2,46,orange,anchor,incong,1,714
27,male,meditate,2,47,burger,pizza,incong,1,554
27,male,meditate,2,48,bus,cat,incong,1,610
27,male,meditate,2,49,cat,cat,cong,1,460
27,male,meditate,2,50,tree,tree,cong,1,566
27,male,meditate,2,51,cherry,cherry,cong,1,452
27,male,meditate,2,52,horse,boat,incong,1,532
27,male,meditate,2,53,carrot,car,incong,1,528
27,male,meditate,2,54,moon,drill,incong,1,604
27,male,meditate,2,55,lemon,tree,incong,1,569
27,male,meditate,2,56,cup,stapler,incong,1,722
27,male,meditate,2,57,ball,ball,cong,1,572
27,male,meditate,2,58,hammer,cake,incong,1,554
27,male,meditate,2,59,cake,moon,incong,1,691
27,male,meditate,2,60,stapler,stapler,cong,1,551
28,male,meditate,1,1,cake,cake,cong,1,424
28,male,meditate,1,2,ball,bus,incong,0,299
28,male,meditate,1,3,apple,apple,cong,1,472
28,male,meditate,1,4,plate,lemon,incong,1,279
28,male,meditate,1,5,church,church,cong,1,430
28,male,meditate,1,6,star,star,cong,1,504
28,male,meditate,1,7,spoon,hat,incong,1,262
28,male,meditate,1,8,anchor,anchor,cong,1,478
28,male,meditate,1,9,burger,burger,cong,1,457
28,male,meditate,1,10,plate,plate,cong,1,470
28,male,meditate,1,11,scissors,scissors,cong,1,442
28,male,meditate,1,12,stapler,stapler,cong,1,429
28,male,meditate,1,13,ball,ball,cong,1,459
28,male,meditate,1,14,cake,drill,incong,1,231
28,male,meditate,1,15,church,carrot,incong,1,204
28,male,meditate,2,16,boat,apple,incong,1,242
28,male,meditate,2,17,bus,bus,cong,1,463
28,male,meditate,2,18,fork,fork,cong,1,474
28,male,meditate,2,19,car,cup,incong,0,194
28,male,meditate,2,20,hammer,hammer,cong,1,523
28,male,meditate,2,21,cat,shoe,incong,1,414
28,male,meditate,2,22,hammer,horse,incong,1,139
28,male,meditate,2,23,lemon,lemon,cong,1,495
28,male,meditate,2,24,dog,dog,cong,1,597
28,male,meditate,2,25,tree,tree,cong,1,403
28,male,meditate,2,26,fork,plate,incong,1,338
28,male,meditate,2,27,bus,tree,incong,1,172
28,male,meditate,2,28,tree,moon,incong,0,368
28,male,meditate,2,29,boat,boat,cong,1,475
28,male,meditate,2,30,burger,car,incong,1,166
28,male,meditate,1,31,cup,cup,cong,1,437
28,male,meditate,1,32,pizza,pizza,cong,1,456
28,male,meditate,1,33,moon,ball,incong,1,233
28,male,meditate,1,34,shoe,shoe,cong,1,506
28,male,meditate,1,35,horse,scissors,incong,1,223
28,male,meditate,1,36,drill,drill,cong,1,440
28,male,meditate,1,37,apple,church,incong,1,217
28,male,meditate,1,38,cherry,cherry,cong,1,442
28,male,meditate,1,39,drill,anchor,incong,1,458
28,male,meditate,1,40,scissors,fork,incong,1,299
28,male,meditate,1,41,cat,cat,cong,1,426
28,male,meditate,1,42,stapler,cat,incong,1,320
28,male,meditate,1,43,spoon,spoon,cong,1,444
28,male,meditate,1,44,pizza,cake,incong,0,214
28,male,meditate,1,45,hat,boat,incong,1,341
28,male,meditate,2,46,moon,moon,cong,1,453
28,male,meditate,2,47,hat,hat,cong,1,413
28,male,meditate,2,48,carrot,carrot,cong,1,414
28,male,meditate,2,49,shoe,dog,incong,1,286
28,male,meditate,2,50,car,car,cong,1,486
28,male,meditate,2,51,orange,orange,cong,1,434
28,male,meditate,2,52,horse,horse,cong,1,353
28,male,meditate,2,53,carrot,hammer,incong,1,365
28,male,meditate,2,54,dog,burger,incong,1,372
28,male,meditate,2,55,lemon,spoon,incong,1,204
28,male,meditate,2,56,anchor,pizza,incong,1,214
28,male,meditate,2,57,cup,orange,incong,1,218
28,male,meditate,2,58,orange,cherry,incong,1,274
28,male,meditate,2,59,cherry,star,incong,1,254
28,male,meditate,2,60,star,stapler,incong,1,250
29,male,meditate,1,1,pizza,tree,incong,1,511
29,male,meditate,1,2,horse,horse,cong,1,542
29,male,meditate,1,3,orange,orange,cong,1,476
29,male,meditate,1,4,horse,boat,incong,1,363
29,male,meditate,1,5,fork,stapler,incong,1,369
29,male,meditate,1,6,tree,pizza,incong,1,410
29,male,meditate,1,7,scissors,horse,incong,1,481
29,male,meditate,1,8,apple,apple,cong,1,441
29,male,meditate,1,9,cat,cat,cong,1,427
29,male,meditate,1,10,carrot,carrot,cong,1,527
29,male,meditate,1,11,spoon,spoon,cong,1,504
29,male,meditate,1,12,star,orange,incong,1,339
29,male,meditate,1,13,cake,spoon,incong,1,362
29,male,meditate,1,14,carrot,drill,incong,1,457
29,male,meditate,1,15,car,hat,incong,1,387
29,male,meditate,2,16,pizza,pizza,cong,1,616
29,male,meditate,2,17,dog,hammer,incong,1,290
29,male,meditate,2,18,moon,moon,cong,1,444
29,male,meditate,2,19,car,car,cong,1,528
29,male,meditate,2,20,boat,ball,incong,1,360
29,male,meditate,2,21,hat,fork,incong,1,363
29,male,meditate,2,22,lemon,lemon,cong,1,461
29,male,meditate,2,23,anchor,moon,incong,1,451
29,male,meditate,2,24,plate,plate,cong,1,437
29,male,meditate,2,25,hammer,cherry,incong,1,358
29,male,meditate,2,26,hat,hat,cong,1,409
29,male,meditate,2,27,drill,shoe,incong,1,330
29,male,meditate,2,28,church,carrot,incong,1,332
29,male,meditate,2,29,moon,cat,incong,1,391
29,male,meditate,2,30,stapler,stapler,cong,1,460
29,male,meditate,1,31,hammer,hammer,cong,1,417
29,male,meditate,1,32,cherry,plate,incong,1,355
29,male,meditate,1,33,star,star,cong,1,480
29,male,meditate,1,34,fork,fork,cong,1,422
29,male,meditate,1,35,burger,burger,cong,1,419
29,male,meditate,1,36,spoon,dog,incong,1,379
29,male,meditate,1,37,drill,drill,cong,1,463
29,male,meditate,1,38,apple,cup,incong,1,364
29,male,meditate,1,39,burger,burger,cong,1,412
29,male,meditate,1,40,boat,boat,cong,1,494
29,male,meditate,1,41,stapler,lemon,incong,1,343
29,male,meditate,1,42,ball,ball,cong,1,421
29,male,meditate,1,43,shoe,star,incong,1,415
29,male,meditate,1,44,ball,church,incong,1,341
29,male,meditate,1,45,plate,scissors,incong,1,376
29,male,meditate,2,46,bus,bus,cong,1,651
29,male,meditate,2,47,orange,bus,incong,1,335
29,male,meditate,2,48,lemon,car,incong,1,404
29,male,meditate,2,49,cherry,cherry,cong,1,573
29,male,meditate,2,50,cup,apple,incong,1,502
29,male,meditate,2,51,cake,cake,cong,1,414
29,male,meditate,2,52,tree,tree,cong,1,402
29,male,meditate,2,53,shoe,shoe,cong,1,456
29,male,meditate,2,54,church,church,cong,1,477
29,male,meditate,2,55,anchor,anchor,cong,1,441
29,male,meditate,2,56,bus,cake,incong,1,363
29,male,meditate,2,57,cat,anchor,incong,1,389
29,male,meditate,2,58,dog,dog,cong,1,406
29,male,meditate,2,59,scissors,scissors,cong,1,437
29,male,meditate,2,60,cup,cup,cong,1,478
30,male,meditate,1,1,shoe,dog,incong,1,517
30,male,meditate,1,2,moon,moon,cong,1,485
30,male,meditate,1,3,star,star,cong,1,527
30,male,meditate,1,4,moon,scissors,incong,0,428
30,male,meditate,1,5,tree,tree,cong,1,414
30,male,meditate,1,6,drill,drill,cong,1,492
30,male,meditate,1,7,stapler,moon,incong,1,391
30,male,meditate,1,8,car,fork,incong,1,363
30,male,meditate,1,9,cake,drill,incong,1,606
30,male,meditate,1,10,anchor,cherry,incong,1,438
30,male,meditate,1,11,fork,boat,incong,1,437
30,male,meditate,1,12,anchor,anchor,cong,1,521
30,male,meditate,1,13,orange,stapler,incong,1,368
30,male,meditate,1,14,boat,boat,cong,1,560
30,male,meditate,1,15,dog,dog,cong,1,481
30,male,meditate,2,16,hat,hat,cong,0,485
30,male,meditate,2,17,lemon,lemon,cong,1,523
30,male,meditate,2,18,hammer,hammer,cong,1,549
30,male,meditate,2,19,cake,cake,cong,1,641
30,male,meditate,2,20,cat,cat,cong,1,457
30,male,meditate,2,21,horse,orange,incong,1,344
30,male,meditate,2,22,plate,hat,incong,1,382
30,male,meditate,2,23,carrot,shoe,incong,1,401
30,male,meditate,2,24,cup,cup,cong,1,686
30,male,meditate,2,25,church,horse,incong,1,345
30,male,meditate,2,26,cup,spoon,incong,1,312
30,male,meditate,2,27,car,car,cong,1,456
30,male,meditate,2,28,orange,orange,cong,1,489
30,male,meditate,2,29,pizza,cake,incong,1,407
30,male,meditate,2,30,scissors,scissors,cong,1,501
30,male,meditate,1,31,burger,burger,cong,1,350
30,male,meditate,1,32,cherry,cherry,cong,1,538
30,male,meditate,1,33,boat,cup,incong,1,366
30,male,meditate,1,34,cat,cat,cong,1,414
30,male,meditate,1,35,burger,burger,cong,1,568
30,male,meditate,1,36,drill,plate,incong,1,341
30,male,meditate,1,37,scissors,carrot,incong,1,430
30,male,meditate,1,38,horse,horse,cong,1,475
30,male,meditate,1,39,tree,tree,cong,1,526
30,male,meditate,1,40,hammer,hammer,cong,1,326
30,male,meditate,1,41,pizza,pizza,cong,1,604
30,male,meditate,1,42,dog,lemon,incong,1,405
30,male,meditate,1,43,bus,bus,cong,1,489
30,male,meditate,1,44,spoon,spoon,cong,1,495
30,male,meditate,1,45,star,bus,incong,1,376
30,male,meditate,2,46,bus,star,incong,1,414
30,male,meditate,2,47,ball,pizza,incong,1,477
30,male,meditate,2,48,carrot,carrot,cong,1,600
30,male,meditate,2,49,spoon,anchor,incong,1,379
30,male,meditate,2,50,fork,fork,cong,1,461
30,male,meditate,2,51,shoe,shoe,cong,1,427
30,male,meditate,2,52,church,church,cong,0,560
30,male,meditate,2,53,cherry,ball,incong,1,475
30,male,meditate,2,54,lemon,apple,incong,1,469
30,male,meditate,2,55,apple,apple,cong,1,492
30,male,meditate,2,56,ball,ball,cong,1,502
30,male,meditate,2,57,stapler,stapler,cong,1,507
30,male,meditate,2,58,hat,car,incong,1,355
30,male,meditate,2,59,plate,plate,cong,0,485
30,male,meditate,2,60,apple,church,incong,1,362
31,male,meditate,1,1,stapler,stapler,cong,1,504
31,male,meditate,1,2,car,car,cong,1,538
31,male,meditate,1,3,fork,dog,incong,1,387
31,male,meditate,1,4,cherry,shoe,incong,1,424
31,male,meditate,1,5,dog,spoon,incong,1,397
31,male,meditate,1,6,cup,pizza,incong,1,379
31,male,meditate,1,7,moon,moon,cong,1,489
31,male,meditate,1,8,hat,hat,cong,1,482
31,male,meditate,1,9,cake,cherry,incong,1,377
31,male,meditate,1,10,orange,tree,incong,1,383
31,male,meditate,1,11,cat,cake,incong,1,412
31,male,meditate,1,12,star,star,cong,1,485
31,male,meditate,1,13,scissors,church,incong,1,425
31,male,meditate,1,14,lemon,hammer,incong,1,425
31,male,meditate,1,15,cat,cat,cong,1,508
31,male,meditate,2,16,anchor,lemon,incong,0,429
31,male,meditate,2,17,church,church,cong,1,532
31,male,meditate,2,18,lemon,lemon,cong,1,401
31,male,meditate,2,19,hat,stapler,incong,1,338
31,male,meditate,2,20,bus,bus,cong,1,573
31,male,meditate,2,21,hammer,cat,incong,1,364
31,male,meditate,2,22,apple,apple,cong,1,506
31,male,meditate,2,23,scissors,scissors,cong,1,420
31,male,meditate,2,24,cup,cup,cong,1,419
31,male,meditate,2,25,stapler,scissors,incong,1,395
31,male,meditate,2,26,burger,burger,cong,1,479
31,male,meditate,2,27,cherry,cherry,cong,1,454
31,male,meditate,2,28,car,ball,incong,1,317
31,male,meditate,2,29,tree,tree,cong,1,462
31,male,meditate,2,30,fork,fork,cong,1,493
31,male,meditate,1,31,star,carrot,incong,1,388
31,male,meditate,1,32,cake,cake,cong,1,471
31,male,meditate,1,33,shoe,star,incong,1,489
31,male,meditate,1,34,carrot,bus,incong,0,392
31,male,meditate,1,35,horse,horse,cong,1,436
31,male,meditate,1,36,spoon,spoon,cong,0,506
31,male,meditate,1,37,ball,ball,cong,1,482
31,male,meditate,1,38,bus,hat,incong,1,382
31,male,meditate,1,39,dog,dog,cong,1,477
31,male,meditate,1,40,plate,plate,cong,1,586
31,male,meditate,1,41,boat,boat,cong,0,561
31,male,meditate,1,42,carrot,carrot,cong,1,475
31,male,meditate,1,43,boat,drill,incong,1,460
31,male,meditate,1,44,spoon,orange,incong,1,422
31,male,meditate,1,45,church,burger,incong,1,396
31,male,meditate,2,46,shoe,shoe,cong,1,522
31,male,meditate,2,47,apple,fork,incong,1,366
31,male,meditate,2,48,tree,anchor,incong,1,314
31,male,meditate,2,49,pizza,pizza,cong,1,501
31,male,meditate,2,50,pizza,car,incong,1,437
31,male,meditate,2,51,horse,horse,cong,1,413
31,male,meditate,2,52,anchor,anchor,cong,1,437
31,male,meditate,2,53,drill,boat,incong,1,427
31,male,meditate,2,54,plate,plate,cong,1,320
31,male,meditate,2,55,drill,drill,cong,1,532
31,male,meditate,2,56,moon,apple,incong,1,373
31,male,meditate,2,57,hammer,hammer,cong,1,505
31,male,meditate,2,58,burger,moon,incong,1,429
31,male,meditate,2,59,ball,cup,incong,1,465
31,male,meditate,2,60,orange,orange,cong,1,504
32,male,meditate,1,1,hat,hat,cong,1,413
32,male,meditate,1,2,apple,apple,cong,1,410
32,male,meditate,1,3,horse,anchor,incong,1,566
32,male,meditate,1,4,orange,orange,cong,1,528
32,male,meditate,1,5,cat,hat,incong,1,559
32,male,meditate,1,6,carrot,horse,incong,1,552
32,male,meditate,1,7,cat,cat,cong,1,416
32,male,meditate,1,8,boat,boat,cong,1,467
32,male,meditate,1,9,bus,bus,cong,1,454
32,male,meditate,1,10,ball,bus,incong,1,492
32,male,meditate,1,11,cup,cup,cong,1,417
32,male,meditate,1,12,church,church,cong,1,449
32,male,meditate,1,13,car,car,cong,1,485
32,male,meditate,1,14,horse,horse,cong,1,475
32,male,meditate,1,15,burger,burger,cong,1,486
32,male,meditate,2,16,cake,cake,cong,1,468
32,male,meditate,2,17,cherry,cherry,cong,1,484
32,male,meditate,2,18,tree,hammer,incong,1,506
32,male,meditate,2,19,cake,burger,incong,1,559
32,male,meditate,2,20,lemon,lemon,cong,1,427
32,male,meditate,2,21,spoon,tree,incong,1,654
32,male,meditate,2,22,dog,cup,incong,1,558
32,male,meditate,2,23,anchor,anchor,cong,1,461
32,male,meditate,2,24,carrot,carrot,cong,1,465
32,male,meditate,2,25,orange,cake,incong,1,565
32,male,meditate,2,26,spoon,spoon,cong,1,554
32,male,meditate,2,27,apple,shoe,incong,1,478
32,male,meditate,2,28,burger,car,incong,1,442
32,male,meditate,2,29,stapler,star,incong,1,511
32,male,meditate,2,30,boat,drill,incong,1,414
32,male,meditate,1,31,moon,moon,cong,1,465
32,male,meditate,1,32,church,stapler,incong,1,596
32,male,meditate,1,33,hat,boat,incong,1,488
32,male,meditate,1,34,shoe,shoe,cong,1,487
32,male,meditate,1,35,car,cherry,incong,1,521
32,male,meditate,1,36,hammer,hammer,cong,1,466
32,male,meditate,1,37,star,orange,incong,1,503
32,male,meditate,1,38,dog,dog,cong,1,429
32,male,meditate,1,39,fork,plate,incong,1,598
32,male,meditate,1,40,star,star,cong,1,421
32,male,meditate,1,41,cherry,moon,incong,1,549
32,male,meditate,1,42,stapler,stapler,cong,1,434
32,male,meditate,1,43,plate,plate,cong,1,451
32,male,meditate,1,44,tree,tree,cong,1,410
32,male,meditate,1,45,cup,pizza,incong,1,542
32,male,meditate,2,46,anchor,apple,incong,1,596
32,male,meditate,2,47,scissors,scissors,cong,1,421
32,male,meditate,2,48,moon,church,incong,1,547
32,male,meditate,2,49,ball,ball,cong,1,437
32,male,meditate,2,50,shoe,lemon,incong,1,580
32,male,meditate,2,51,fork,fork,cong,1,498
32,male,meditate,2,52,bus,scissors,incong,1,573
32,male,meditate,2,53,plate,ball,incong,1,584
32,male,meditate,2,54,lemon,carrot,incong,1,550
32,male,meditate,2,55,hammer,spoon,incong,1,499
32,male,meditate,2,56,drill,dog,incong,1,693
32,male,meditate,2,57,pizza,pizza,cong,1,472
32,male,meditate,2,58,drill,drill,cong,1,390
32,male,meditate,2,59,pizza,cat,incong,1,481
32,male,meditate,2,60,scissors,fork,incong,1,472
33,male,meditate,1,1,burger,carrot,incong,1,391
33,male,meditate,1,2,hat,hat,cong,1,538
33,male,meditate,1,3,stapler,plate,incong,1,438
33,male,meditate,1,4,moon,moon,cong,1,585
33,male,meditate,1,5,ball,moon,incong,1,524
33,male,meditate,1,6,cup,cup,cong,1,504
33,male,meditate,1,7,horse,cup,incong,1,452
33,male,meditate,1,8,dog,dog,cong,1,502
33,male,meditate,1,9,hammer,hammer,cong,1,534
33,male,meditate,1,10,burger,burger,cong,1,579
33,male,meditate,1,11,drill,lemon,incong,1,384
33,male,meditate,1,12,car,church,incong,1,573
33,male,meditate,1,13,shoe,fork,incong,1,470
33,male,meditate,1,14,cake,ball,incong,1,422
33,male,meditate,1,15,bus,horse,incong,1,460
33,male,meditate,2,16,fork,dog,incong,1,531
33,male,meditate,2,17,church,church,cong,1,577
33,male,meditate,2,18,cat,cat,cong,1,599
33,male,meditate,2,19,shoe,shoe,cong,1,562
33,male,meditate,2,20,cup,cherry,incong,1,533
33,male,meditate,2,21,plate,plate,cong,1,492
33,male,meditate,2,22,plate,stapler,incong,1,468
33,male,meditate,2,23,church,burger,incong,1,406
33,male,meditate,2,24,boat,boat,cong,1,606
33,male,meditate,2,25,anchor,anchor,cong,1,484
33,male,meditate,2,26,spoon,spoon,cong,1,486
33,male,meditate,2,27,lemon,lemon,cong,1,566
33,male,meditate,2,28,scissors,scissors,cong,1,590
33,male,meditate,2,29,carrot,apple,incong,1,422
33,male,meditate,2,30,horse,horse,cong,1,546
33,male,meditate,1,31,pizza,drill,incong,1,439
33,male,meditate,1,32,cat,hat,incong,1,445
33,male,meditate,1,33,tree,tree,cong,1,539
33,male,meditate,1,34,pizza,pizza,cong,1,529
33,male,meditate,1,35,lemon,cake,incong,1,494
33,male,meditate,1,36,cherry,anchor,incong,1,383
33,male,meditate,1,37,car,car,cong,1,510
33,male,meditate,1,38,fork,fork,cong,1,502
33,male,meditate,1,39,bus,bus,cong,1,506
33,male,meditate,1,40,boat,cat,incong,1,396
33,male,meditate,1,41,dog,car,incong,1,487
33,male,meditate,1,42,moon,shoe,incong,1,450
33,male,meditate,1,43,cake,cake,cong,1,512
33,male,meditate,1,44,drill,drill,cong,1,533
33,male,meditate,1,45,apple,apple,cong,1,503
33,male,meditate,2,46,ball,ball,cong,1,646
33,male,meditate,2,47,orange,spoon,incong,1,564
33,male,meditate,2,48,star,star,cong,1,654
33,male,meditate,2,49,hammer,star,incong,1,443
33,male,meditate,2,50,hat,tree,incong,1,506
33,male,meditate,2,51,tree,scissors,incong,1,375
33,male,meditate,2,52,spoon,hammer,incong,0,429
33,male,meditate,2,53,carrot,carrot,cong,1,526
33,male,meditate,2,54,scissors,pizza,incong,1,474
33,male,meditate,2,55,star,boat,incong,1,479
33,male,meditate,2,56,apple,bus,incong,1,380
33,male,meditate,2,57,stapler,stapler,cong,1,505
33,male,meditate,2,58,anchor,orange,incong,1,485
33,male,meditate,2,59,orange,orange,cong,1,518
33,male,meditate,2,60,cherry,cherry,cong,1,605
34,male,meditate,1,1,bus,bus,cong,1,400
34,male,meditate,1,2,scissors,scissors,cong,1,440
34,male,meditate,1,3,cherry,cherry,cong,1,441
34,male,meditate,1,4,hammer,hammer,cong,1,449
34,male,meditate,1,5,lemon,lemon,cong,1,461
34,male,meditate,1,6,boat,drill,incong,1,636
34,male,meditate,1,7,moon,cherry,incong,1,540
34,male,meditate,1,8,dog,dog,cong,1,433
34,male,meditate,1,9,lemon,stapler,incong,1,669
34,male,meditate,1,10,church,church,cong,1,465
34,male,meditate,1,11,cup,cup,cong,1,414
34,male,meditate,1,12,orange,fork,incong,0,637
34,male,meditate,1,13,carrot,orange,incong,1,618
34,male,meditate,1,14,apple,apple,cong,1,460
34,male,meditate,1,15,tree,tree,cong,1,498
34,male,meditate,2,16,ball,plate,incong,1,623
34,male,meditate,2,17,burger,burger,cong,1,399
34,male,meditate,2,18,stapler,anchor,incong,1,648
34,male,meditate,2,19,shoe,scissors,incong,1,700
34,male,meditate,2,20,tree,horse,incong,1,769
34,male,meditate,2,21,hat,hat,cong,1,435
34,male,meditate,2,22,cat,cat,cong,1,417
34,male,meditate,2,23,anchor,anchor,cong,0,501
34,male,meditate,2,24,orange,orange,cong,1,408
34,male,meditate,2,25,ball,ball,cong,1,578
34,male,meditate,2,26,cake,cake,cong,1,507
34,male,meditate,2,27,car,car,cong,1,466
34,male,meditate,2,28,cat,dog,incong,1,651
34,male,meditate,2,29,pizza,pizza,cong,1,448
34,male,meditate,2,30,star,moon,incong,1,626
34,male,meditate,1,31,church,cake,incong,1,553
34,male,meditate,1,32,fork,ball,incong,1,678
34,male,meditate,1,33,star,star,cong,1,448
34,male,meditate,1,34,dog,lemon,incong,0,674
34,male,meditate,1,35,apple,boat,incong,1,604
34,male,meditate,1,36,hammer,cup,incong,1,591
34,male,meditate,1,37,fork,fork,cong,1,424
34,male,meditate,1,38,horse,tree,incong,1,539
34,male,meditate,1,39,horse,horse,cong,1,391
34,male,meditate,1,40,cherry,cat,incong,1,604
34,male,meditate,1,41,cake,star,incong,1,592
34,male,meditate,1,42,plate,plate,cong,1,406
34,male,meditate,1,43,bus,hammer,incong,1,634
34,male,meditate,1,44,cup,apple,incong,1,582
34,male,meditate,1,45,drill,drill,cong,1,396
34,male,meditate,2,46,drill,spoon,incong,1,861
34,male,meditate,2,47,carrot,carrot,cong,1,398
34,male,meditate,2,48,scissors,burger,incong,1,671
34,male,meditate,2,49,shoe,shoe,cong,1,388
34,male,meditate,2,50,spoon,spoon,cong,1,533
34,male,meditate,2,51,spoon,shoe,incong,1,650
34,male,meditate,2,52,plate,car,incong,1,545
34,male,meditate,2,53,pizza,hat,incong,1,668
34,male,meditate,2,54,burger,bus,incong,1,581
34,male,meditate,2,55,stapler,stapler,cong,0,496
34,male,meditate,2,56,moon,moon,cong,1,578
34,male,meditate,2,57,anchor,carrot,incong,1,519
34,male,meditate,2,58,car,pizza,incong,1,634
34,male,meditate,2,59,hat,church,incong,1,746
34,male,meditate,2,60,boat,boat,cong,1,471
35,male,meditate,1,1,spoon,spoon,cong,1,617
35,male,meditate,1,2,fork,spoon,incong,1,564
35,male,meditate,1,3,cat,hat,incong,1,546
35,male,meditate,1,4,car,ball,incong,1,657
35,male,meditate,1,5,moon,boat,incong,1,608
35,male,meditate,1,6,anchor,star,incong,1,608
35,male,meditate,1,7,shoe,shoe,cong,1,567
35,male,meditate,1,8,bus,hammer,incong,1,625
35,male,meditate,1,9,dog,dog,cong,1,558
35,male,meditate,1,10,plate,car,incong,1,608
35,male,meditate,1,11,ball,ball,cong,1,594
35,male,meditate,1,12,cat,cat,cong,1,635
35,male,meditate,1,13,cherry,fork,incong,1,601
35,male,meditate,1,14,cake,cake,cong,1,571
35,male,meditate,1,15,drill,pizza,incong,1,624
35,male,meditate,2,16,cherry,cherry,cong,1,607
35,male,meditate,2,17,carrot,carrot,cong,1,522
35,male,meditate,2,18,orange,stapler,incong,1,629
35,male,meditate,2,19,boat,boat,cong,1,485
35,male,meditate,2,20,stapler,tree,incong,1,595
35,male,meditate,2,21,star,horse,incong,1,536
35,male,meditate,2,22,horse,horse,cong,1,632
35,male,meditate,2,23,burger,burger,cong,1,598
35,male,meditate,2,24,tree,tree,cong,1,498
35,male,meditate,2,25,pizza,scissors,incong,1,594
35,male,meditate,2,26,hat,hat,cong,1,523
35,male,meditate,2,27,shoe,lemon,incong,1,645
35,male,meditate,2,28,moon,moon,cong,1,525
35,male,meditate,2,29,scissors,scissors,cong,1,574
35,male,meditate,2,30,burger,cat,incong,1,588
35,male,meditate,1,31,bus,bus,cong,1,496
35,male,meditate,1,32,pizza,pizza,cong,1,476
35,male,meditate,1,33,dog,cake,incong,1,538
35,male,meditate,1,34,spoon,dog,incong,1,675
35,male,meditate,1,35,cup,plate,incong,1,559
35,male,meditate,1,36,fork,fork,cong,1,526
35,male,meditate,1,37,cup,cup,cong,1,486
35,male,meditate,1,38,hammer,hammer,cong,1,511
35,male,meditate,1,39,scissors,shoe,incong,1,613
35,male,meditate,1,40,horse,drill,incong,1,579
35,male,meditate,1,41,car,car,cong,1,561
35,male,meditate,1,42,lemon,church,incong,1,537
35,male,meditate,1,43,carrot,apple,incong,1,619
35,male,meditate,1,44,apple,apple,cong,1,561
35,male,meditate,1,45,ball,cherry,incong,1,649
35,male,meditate,2,46,drill,drill,cong,1,595
35,male,meditate,2,47,stapler,stapler,cong,1,462
35,male,meditate,2,48,hat,burger,incong,1,644
35,male,meditate,2,49,hammer,carrot,incong,1,771
35,male,meditate,2,50,anchor,anchor,cong,1,535
35,male,meditate,2,51,apple,anchor,incong,0,581
35,male,meditate,2,52,star,star,cong,1,571
35,male,meditate,2,53,lemon,lemon,cong,1,571
35,male,meditate,2,54,orange,orange,cong,1,503
35,male,meditate,2,55,boat,bus,incong,1,565
35,male,meditate,2,56,tree,cup,incong,1,608
35,male,meditate,2,57,plate,plate,cong,1,584
35,male,meditate,2,58,cake,orange,incong,1,637
35,male,meditate,2,59,church,church,cong,1,532
35,male,meditate,2,60,church,moon,incong,1,665
36,male,meditate,1,1,cup,cup,cong,1,454
36,male,meditate,1,2,plate,church,incong,1,452
36,male,meditate,1,3,pizza,pizza,cong,1,499
36,male,meditate,1,4,drill,hammer,incong,1,503
36,male,meditate,1,5,hammer,fork,incong,1,438
36,male,meditate,1,6,drill,drill,cong,1,546
36,male,meditate,1,7,scissors,moon,incong,1,445
36,male,meditate,1,8,cat,cat,cong,1,512
36,male,meditate,1,9,cherry,carrot,incong,1,477
36,male,meditate,1,10,boat,burger,incong,1,489
36,male,meditate,1,11,hat,pizza,incong,1,532
36,male,meditate,1,12,cup,hat,incong,1,519
36,male,meditate,1,13,carrot,carrot,cong,1,477
36,male,meditate,1,14,fork,fork,cong,1,567
36,male,meditate,1,15,plate,plate,cong,1,552
36,male,meditate,2,16,apple,apple,cong,1,489
36,male,meditate,2,17,ball,ball,cong,1,492
36,male,meditate,2,18,moon,moon,cong,1,549
36,male,meditate,2,19,burger,burger,cong,1,489
36,male,meditate,2,20,cake,cake,cong,1,713
36,male,meditate,2,21,church,cherry,incong,1,516
36,male,meditate,2,22,lemon,lemon,cong,1,483
36,male,meditate,2,23,car,car,cong,1,550
36,male,meditate,2,24,tree,shoe,incong,1,458
36,male,meditate,2,25,orange,cup,incong,1,564
36,male,meditate,2,26,orange,orange,cong,1,399
36,male,meditate,2,27,boat,boat,cong,1,544
36,male,meditate,2,28,shoe,cake,incong,1,537
36,male,meditate,2,29,anchor,anchor,cong,1,504
36,male,meditate,2,30,stapler,anchor,incong,1,453
36,male,meditate,1,31,moon,cat,incong,1,455
36,male,meditate,1,32,cake,tree,incong,1,521
36,male,meditate,1,33,apple,apple,cong,1,486
36,male,meditate,1,34,bus,bus,cong,1,518
36,male,meditate,1,35,star,spoon,incong,1,472
36,male,meditate,1,36,horse,boat,incong,1,668
36,male,meditate,1,37,shoe,shoe,cong,1,469
36,male,meditate,1,38,pizza,dog,incong,1,461
36,male,meditate,1,39,anchor,plate,incong,1,444
36,male,meditate,1,40,lemon,car,incong,1,576
36,male,meditate,1,41,dog,dog,cong,1,527
36,male,meditate,1,42,scissors,scissors,cong,1,550
36,male,meditate,1,43,carrot,orange,incong,1,494
36,male,meditate,1,44,burger,bus,incong,1,468
36,male,meditate,1,45,stapler,stapler,cong,1,496
36,male,meditate,2,46,spoon,spoon,cong,1,507
36,male,meditate,2,47,bus,star,incong,1,477
36,male,meditate,2,48,tree,tree,cong,1,640
36,male,meditate,2,49,dog,scissors,incong,1,480
36,male,meditate,2,50,hammer,hammer,cong,1,584
36,male,meditate,2,51,car,stapler,incong,1,512
36,male,meditate,2,52,cat,drill,incong,1,408
36,male,meditate,2,53,star,star,cong,1,508
36,male,meditate,2,54,church,church,cong,1,464
36,male,meditate,2,55,spoon,lemon,incong,1,585
36,male,meditate,2,56,ball,ball,cong,1,580
36,male,meditate,2,57,cherry,cherry,cong,1,475
36,male,meditate,2,58,horse,horse,cong,1,470
36,male,meditate,2,59,hat,hat,cong,1,472
36,male,meditate,2,60,fork,horse,incong,1,431
37,male,meditate,1,1,bus,scissors,incong,1,566
37,male,meditate,1,2,cup,cup,cong,1,485
37,male,meditate,1,3,moon,moon,cong,1,511
37,male,meditate,1,4,moon,hammer,incong,0,550
37,male,meditate,1,5,cake,fork,incong,1,546
37,male,meditate,1,6,orange,orange,cong,1,558
37,male,meditate,1,7,ball,cup,incong,1,492
37,male,meditate,1,8,anchor,star,incong,1,534
37,male,meditate,1,9,apple,horse,incong,1,495
37,male,meditate,1,10,fork,fork,cong,1,455
37,male,meditate,1,11,star,star,cong,1,440
37,male,meditate,1,12,plate,bus,incong,1,551
37,male,meditate,1,13,bus,bus,cong,1,486
37,male,meditate,1,14,hat,plate,incong,1,521
37,male,meditate,1,15,boat,lemon,incong,1,528
37,male,meditate,2,16,anchor,anchor,cong,1,452
37,male,meditate,2,17,hat,hat,cong,1,460
37,male,meditate,2,18,burger,cat,incong,1,514
37,male,meditate,2,19,dog,pizza,incong,1,501
37,male,meditate,2,20,cat,cat,cong,1,420
37,male,meditate,2,21,stapler,stapler,cong,1,476
37,male,meditate,2,22,lemon,lemon,cong,1,510
37,male,meditate,2,23,shoe,stapler,incong,0,507
37,male,meditate,2,24,fork,boat,incong,1,673
37,male,meditate,2,25,car,moon,incong,1,536
37,male,meditate,2,26,cup,spoon,incong,1,510
37,male,meditate,2,27,cherry,dog,incong,1,462
37,male,meditate,2,28,orange,anchor,incong,1,501
37,male,meditate,2,29,pizza,pizza,cong,1,466
37,male,meditate,2,30,hammer,tree,incong,1,586
37,male,meditate,1,31,boat,boat,cong,1,485
37,male,meditate,1,32,tree,ball,incong,1,509
37,male,meditate,1,33,star,apple,incong,1,522
37,male,meditate,1,34,drill,drill,cong,1,466
37,male,meditate,1,35,drill,car,incong,1,501
37,male,meditate,1,36,tree,tree,cong,1,517
37,male,meditate,1,37,horse,horse,cong,1,481
37,male,meditate,1,38,stapler,church,incong,0,503
37,male,meditate,1,39,apple,apple,cong,1,544
37,male,meditate,1,40,church,drill,incong,1,493
37,male,meditate,1,41,pizza,hat,incong,1,520
37,male,meditate,1,42,scissors,cake,incong,0,525
37,male,meditate,1,43,church,church,cong,1,527
37,male,meditate,1,44,plate,plate,cong,1,469
37,male,meditate,1,45,horse,cherry,incong,0,597
37,male,meditate,2,46,shoe,shoe,cong,1,462
37,male,meditate,2,47,cherry,cherry,cong,1,456
37,male,meditate,2,48,carrot,orange,incong,1,532
37,male,meditate,2,49,spoon,spoon,cong,1,421
37,male,meditate,2,50,cat,shoe,incong,1,460
37,male,meditate,2,51,dog,dog,cong,1,449
37,male,meditate,2,52,scissors,scissors,cong,1,625
37,male,meditate,2,53,lemon,carrot,incong,1,513
37,male,meditate,2,54,carrot,carrot,cong,1,458
37,male,meditate,2,55,cake,cake,cong,1,540
37,male,meditate,2,56,burger,burger,cong,0,502
37,male,meditate,2,57,ball,ball,cong,1,400
37,male,meditate,2,58,hammer,hammer,cong,1,418
37,male,meditate,2,59,spoon,burger,incong,0,488
