"acc","accuracy","average_response_time","avg_rt","background","bidi","canvas_backend","clock_backend","color_backend","compensation","coordinates","correct","correct_facetest_response","correct_instructions","correct_sexrating_response","count_blank100","count_exemplarsequence","count_experiment","count_exposure","count_exposuresequence","count_faceexpose","count_facetest","count_facetest_response","count_instructions","count_logger","count_notes","count_sexrating","count_sexrating_response","count_test","count_testinstructions","datetime","description","disable_garbage_collection","experiment_file","experiment_path","faceno","fname","font_bold","font_family","font_italic","font_size","font_underline","foreground","form_clicks","fullscreen","height","keyboard_backend","live_row","live_row_exposure","logfile","mouse_backend","opensesame_codename","opensesame_version","phase","repeat_cycle","response","response_facetest_response","response_instructions","response_sexrating_response","response_testinstructions","response_time","response_time_facetest_response","response_time_instructions","response_time_sexrating_response","response_time_testinstructions","round_decimals","sampler_backend","shifttype","sound_buf_size","sound_channels","sound_freq","sound_sample_size","start","subject_nr","subject_parity","synth_backend","time_blank100","time_exemplarsequence","time_experiment","time_exposure","time_exposuresequence","time_faceexpose","time_facetest","time_facetest_response","time_instructions","time_logger","time_notes","time_sexrating","time_sexrating_response","time_test","time_testinstructions","title","total_correct","total_response_time","total_responses","transparent_variables","type","uniform_coordinates","width","xshift","yshift"
"undefined","undefined","864","864","white","no","legacy","legacy","legacy","0","relative","undefined","NA","undefined","undefined","0","NA","0","0","0","0","NA","NA","0","0","0","0","0","0","0","Wed 30 Oct 2019 11:28:06 GMT","","yes","facialproto_short.osexp","/home/andy/svn/rmip/docs/openseslib","6","0680.png","no","mono","no","18","no","black","no","no","1080","legacy","0","0","/home/andy/svn/rmip/docs/openseslib/subject-3.csv","legacy","Kafkaesque Koffka","3.2.7","exposure","0","6","NA","space","6","NA","864","NA","801","864","NA","2","legacy","horizontal","1024","2","48000","-16","experiment","3","odd","legacy","1499","NA","636","1442","1496","1614","NA","NA","641","3498","NA","2632","2634","NA","NA","Feature Shift Prototypes","0","864","1","no","NA","no","1920","8","0"
"undefined","undefined","749.5","749.5","white","no","legacy","legacy","legacy","0","relative","undefined","NA","undefined","undefined","1","NA","0","0","1","1","NA","NA","0","1","0","1","1","0","0","Wed 30 Oct 2019 11:28:06 GMT","","yes","facialproto_short.osexp","/home/andy/svn/rmip/docs/openseslib","1","010-8.png","no","mono","no","18","no","black","no","no","1080","legacy","1","1","/home/andy/svn/rmip/docs/openseslib/subject-3.csv","legacy","Kafkaesque Koffka","3.2.7","exposure","0","4","NA","space","4","NA","635","NA","801","635","NA","2","legacy","vertical","1024","2","48000","-16","experiment","3","odd","legacy","3620","NA","636","1442","3617","3723","NA","NA","641","5362","NA","4725","4726","NA","NA","Feature Shift Prototypes","0","1499","2","no","NA","no","1920","0","-8"
"undefined","undefined","720","720","white","no","legacy","legacy","legacy","0","relative","undefined","NA","undefined","undefined","2","NA","0","0","2","2","NA","NA","0","2","0","2","2","0","0","Wed 30 Oct 2019 11:28:06 GMT","","yes","facialproto_short.osexp","/home/andy/svn/rmip/docs/openseslib","3","0308.png","no","mono","no","18","no","black","no","no","1080","legacy","2","2","/home/andy/svn/rmip/docs/openseslib/subject-3.csv","legacy","Kafkaesque Koffka","3.2.7","exposure","0","5","NA","space","5","NA","661","NA","801","661","NA","2","legacy","vertical","1024","2","48000","-16","experiment","3","odd","legacy","5443","NA","636","1442","5440","5545","NA","NA","641","7210","NA","6548","6549","NA","NA","Feature Shift Prototypes","0","2160","3","no","NA","no","1920","0","8"
"undefined","undefined","767.5","767.5","white","no","legacy","legacy","legacy","0","relative","undefined","NA","undefined","undefined","3","NA","0","0","3","3","NA","NA","0","3","0","3","3","0","0","Wed 30 Oct 2019 11:28:06 GMT","","yes","facialproto_short.osexp","/home/andy/svn/rmip/docs/openseslib","4","04-80.png","no","mono","no","18","no","black","no","no","1080","legacy","3","3","/home/andy/svn/rmip/docs/openseslib/subject-3.csv","legacy","Kafkaesque Koffka","3.2.7","exposure","0","6","NA","space","6","NA","910","NA","801","910","NA","2","legacy","horizontal","1024","2","48000","-16","experiment","3","odd","legacy","7299","NA","636","1442","7296","7401","NA","NA","641","9314","NA","8403","8403","NA","NA","Feature Shift Prototypes","0","3070","4","no","NA","no","1920","-8","0"
"undefined","undefined","784","784","white","no","legacy","legacy","legacy","0","relative","undefined","NA","undefined","undefined","4","NA","0","0","4","4","NA","NA","0","4","0","4","4","0","0","Wed 30 Oct 2019 11:28:06 GMT","","yes","facialproto_short.osexp","/home/andy/svn/rmip/docs/openseslib","8","0880.png","no","mono","no","18","no","black","no","no","1080","legacy","4","4","/home/andy/svn/rmip/docs/openseslib/subject-3.csv","legacy","Kafkaesque Koffka","3.2.7","exposure","0","4","NA","space","4","NA","850","NA","801","850","NA","2","legacy","horizontal","1024","2","48000","-16","experiment","3","odd","legacy","9399","NA","636","1442","9396","9501","NA","NA","641","11354","NA","10503","10503","NA","NA","Feature Shift Prototypes","0","3920","5","no","NA","no","1920","8","0"
"undefined","undefined","804.5","804.5","white","no","legacy","legacy","legacy","0","relative","undefined","NA","undefined","undefined","5","NA","0","0","5","5","NA","NA","0","5","0","5","5","0","0","Wed 30 Oct 2019 11:28:06 GMT","","yes","facialproto_short.osexp","/home/andy/svn/rmip/docs/openseslib","6","06-80.png","no","mono","no","18","no","black","no","no","1080","legacy","5","5","/home/andy/svn/rmip/docs/openseslib/subject-3.csv","legacy","Kafkaesque Koffka","3.2.7","exposure","0","5","NA","space","5","NA","907","NA","801","907","NA","2","legacy","horizontal","1024","2","48000","-16","experiment","3","odd","legacy","11446","NA","636","1442","11443","11548","NA","NA","641","13458","NA","12550","12550","NA","NA","Feature Shift Prototypes","0","4827","6","no","NA","no","1920","-8","0"
"undefined","undefined","805.857142857","805.857142857","white","no","legacy","legacy","legacy","0","relative","undefined","NA","undefined","undefined","6","NA","0","0","6","6","NA","NA","0","6","0","6","6","0","0","Wed 30 Oct 2019 11:28:06 GMT","","yes","facialproto_short.osexp","/home/andy/svn/rmip/docs/openseslib","4","04-80.png","no","mono","no","18","no","black","no","no","1080","legacy","6","6","/home/andy/svn/rmip/docs/openseslib/subject-3.csv","legacy","Kafkaesque Koffka","3.2.7","exposure","0","6","NA","space","6","NA","814","NA","801","814","NA","2","legacy","horizontal","1024","2","48000","-16","experiment","3","odd","legacy","13545","NA","636","1442","13542","13647","NA","NA","641","15466","NA","14650","14651","NA","NA","Feature Shift Prototypes","0","5641","7","no","NA","no","1920","-8","0"
"undefined","undefined","805.375","805.375","white","no","legacy","legacy","legacy","0","relative","undefined","NA","undefined","undefined","7","NA","0","0","7","7","NA","NA","0","7","0","7","7","0","0","Wed 30 Oct 2019 11:28:06 GMT","","yes","facialproto_short.osexp","/home/andy/svn/rmip/docs/openseslib","4","0480.png","no","mono","no","18","no","black","no","no","1080","legacy","7","7","/home/andy/svn/rmip/docs/openseslib/subject-3.csv","legacy","Kafkaesque Koffka","3.2.7","exposure","0","4","NA","space","4","NA","802","NA","801","802","NA","2","legacy","horizontal","1024","2","48000","-16","experiment","3","odd","legacy","15582","NA","636","1442","15579","15684","NA","NA","641","17490","NA","16687","16687","NA","NA","Feature Shift Prototypes","0","6443","8","no","NA","no","1920","8","0"
"undefined","undefined","804.888888889","804.888888889","white","no","legacy","legacy","legacy","0","relative","undefined","NA","undefined","undefined","8","NA","0","0","8","8","NA","NA","0","8","0","8","8","0","0","Wed 30 Oct 2019 11:28:06 GMT","","yes","facialproto_short.osexp","/home/andy/svn/rmip/docs/openseslib","2","0280.png","no","mono","no","18","no","black","no","no","1080","legacy","8","8","/home/andy/svn/rmip/docs/openseslib/subject-3.csv","legacy","Kafkaesque Koffka","3.2.7","exposure","0","3","NA","space","3","NA","801","NA","801","801","NA","2","legacy","horizontal","1024","2","48000","-16","experiment","3","odd","legacy","17608","NA","636","1442","17605","17710","NA","NA","641","19514","NA","18712","18712","NA","NA","Feature Shift Prototypes","0","7244","9","no","NA","no","1920","8","0"
"undefined","undefined","813.3","813.3","white","no","legacy","legacy","legacy","0","relative","undefined","NA","undefined","undefined","9","NA","0","0","9","9","NA","NA","0","9","0","9","9","0","0","Wed 30 Oct 2019 11:28:06 GMT","","yes","facialproto_short.osexp","/home/andy/svn/rmip/docs/openseslib","5","0508.png","no","mono","no","18","no","black","no","no","1080","legacy","9","9","/home/andy/svn/rmip/docs/openseslib/subject-3.csv","legacy","Kafkaesque Koffka","3.2.7","exposure","0","5","NA","space","5","NA","889","NA","801","889","NA","2","legacy","vertical","1024","2","48000","-16","experiment","3","odd","legacy","19631","NA","636","1442","19628","19734","NA","NA","641","21626","NA","20736","20736","NA","NA","Feature Shift Prototypes","0","8133","10","no","NA","no","1920","0","8"
"undefined","undefined","822.454545455","822.454545455","white","no","legacy","legacy","legacy","0","relative","undefined","NA","undefined","undefined","10","NA","0","0","10","10","NA","NA","0","10","0","10","10","0","0","Wed 30 Oct 2019 11:28:06 GMT","","yes","facialproto_short.osexp","/home/andy/svn/rmip/docs/openseslib","7","070-8.png","no","mono","no","18","no","black","no","no","1080","legacy","10","10","/home/andy/svn/rmip/docs/openseslib/subject-3.csv","legacy","Kafkaesque Koffka","3.2.7","exposure","0","6","NA","space","6","NA","914","NA","801","914","NA","2","legacy","vertical","1024","2","48000","-16","experiment","3","odd","legacy","21718","NA","636","1442","21715","21821","NA","NA","641","23738","NA","22824","22824","NA","NA","Feature Shift Prototypes","0","9047","11","no","NA","no","1920","0","-8"
"undefined","undefined","827.833333333","827.833333333","white","no","legacy","legacy","legacy","0","relative","undefined","NA","undefined","undefined","11","NA","0","0","11","11","NA","NA","0","11","0","11","11","0","0","Wed 30 Oct 2019 11:28:06 GMT","","yes","facialproto_short.osexp","/home/andy/svn/rmip/docs/openseslib","6","0680.png","no","mono","no","18","no","black","no","no","1080","legacy","11","11","/home/andy/svn/rmip/docs/openseslib/subject-3.csv","legacy","Kafkaesque Koffka","3.2.7","exposure","0","5","NA","space","5","NA","887","NA","801","887","NA","2","legacy","horizontal","1024","2","48000","-16","experiment","3","odd","legacy","23843","NA","636","1442","23840","23945","NA","NA","641","25834","NA","24947","24947","NA","NA","Feature Shift Prototypes","0","9934","12","no","NA","no","1920","8","0"
"undefined","undefined","828.923076923","828.923076923","white","no","legacy","legacy","legacy","0","relative","undefined","NA","undefined","undefined","12","NA","0","0","12","12","NA","NA","0","12","0","12","12","0","0","Wed 30 Oct 2019 11:28:06 GMT","","yes","facialproto_short.osexp","/home/andy/svn/rmip/docs/openseslib","1","0108.png","no","mono","no","18","no","black","no","no","1080","legacy","12","12","/home/andy/svn/rmip/docs/openseslib/subject-3.csv","legacy","Kafkaesque Koffka","3.2.7","exposure","0","4","NA","space","4","NA","842","NA","801","842","NA","2","legacy","vertical","1024","2","48000","-16","experiment","3","odd","legacy","25919","NA","636","1442","25916","26021","NA","NA","641","27866","NA","27023","27024","NA","NA","Feature Shift Prototypes","0","10776","13","no","NA","no","1920","0","8"
"undefined","undefined","829.928571429","829.928571429","white","no","legacy","legacy","legacy","0","relative","undefined","NA","undefined","undefined","13","NA","0","0","13","13","NA","NA","0","13","0","13","13","0","0","Wed 30 Oct 2019 11:28:06 GMT","","yes","facialproto_short.osexp","/home/andy/svn/rmip/docs/openseslib","8","08-80.png","no","mono","no","18","no","black","no","no","1080","legacy","13","13","/home/andy/svn/rmip/docs/openseslib/subject-3.csv","legacy","Kafkaesque Koffka","3.2.7","exposure","0","6","NA","space","6","NA","843","NA","801","843","NA","2","legacy","horizontal","1024","2","48000","-16","experiment","3","odd","legacy","27966","NA","636","1442","27963","28068","NA","NA","641","29914","NA","29070","29071","NA","NA","Feature Shift Prototypes","0","11619","14","no","NA","no","1920","-8","0"
"undefined","undefined","847.133333333","847.133333333","white","no","legacy","legacy","legacy","0","relative","undefined","NA","undefined","undefined","14","NA","0","0","14","14","NA","NA","0","14","0","14","14","0","0","Wed 30 Oct 2019 11:28:06 GMT","","yes","facialproto_short.osexp","/home/andy/svn/rmip/docs/openseslib","8","08-80.png","no","mono","no","18","no","black","no","no","1080","legacy","14","14","/home/andy/svn/rmip/docs/openseslib/subject-3.csv","legacy","Kafkaesque Koffka","3.2.7","exposure","0","5","NA","space","5","NA","1088","NA","801","1088","NA","2","legacy","horizontal","1024","2","48000","-16","experiment","3","odd","legacy","30002","NA","636","1442","30000","30104","NA","NA","641","32196","NA","31106","31107","NA","NA","Feature Shift Prototypes","0","12707","15","no","NA","no","1920","-8","0"
"undefined","undefined","794.5","794.5","white","no","legacy","legacy","legacy","0","relative","undefined","NA","undefined","undefined","15","NA","0","0","15","15","NA","NA","0","15","0","15","15","0","0","Wed 30 Oct 2019 11:28:06 GMT","","yes","facialproto_short.osexp","/home/andy/svn/rmip/docs/openseslib","2","02-80.png","no","mono","no","18","no","black","no","no","1080","legacy","15","15","/home/andy/svn/rmip/docs/openseslib/subject-3.csv","legacy","Kafkaesque Koffka","3.2.7","exposure","0","5","NA","space","5","NA","5","NA","801","5","NA","2","legacy","horizontal","1024","2","48000","-16","experiment","3","odd","legacy","32277","NA","636","1442","32275","32379","NA","NA","641","33387","NA","33381","33381","NA","NA","Feature Shift Prototypes","0","12712","16","no","NA","no","1920","-8","0"
"undefined","undefined","801.882352941","801.882352941","white","no","legacy","legacy","legacy","0","relative","undefined","NA","undefined","undefined","16","NA","0","0","16","16","NA","NA","0","16","0","16","16","0","0","Wed 30 Oct 2019 11:28:06 GMT","","yes","facialproto_short.osexp","/home/andy/svn/rmip/docs/openseslib","6","06-80.png","no","mono","no","18","no","black","no","no","1080","legacy","16","16","/home/andy/svn/rmip/docs/openseslib/subject-3.csv","legacy","Kafkaesque Koffka","3.2.7","exposure","0","6","NA","space","6","NA","920","NA","801","920","NA","2","legacy","horizontal","1024","2","48000","-16","experiment","3","odd","legacy","33481","NA","636","1442","33478","33583","NA","NA","641","35505","NA","34585","34585","NA","NA","Feature Shift Prototypes","0","13632","17","no","NA","no","1920","-8","0"
"undefined","undefined","803.333333333","803.333333333","white","no","legacy","legacy","legacy","0","relative","undefined","NA","undefined","undefined","17","NA","0","0","17","17","NA","NA","0","17","0","17","17","0","0","Wed 30 Oct 2019 11:28:06 GMT","","yes","facialproto_short.osexp","/home/andy/svn/rmip/docs/openseslib","7","0708.png","no","mono","no","18","no","black","no","no","1080","legacy","17","17","/home/andy/svn/rmip/docs/openseslib/subject-3.csv","legacy","Kafkaesque Koffka","3.2.7","exposure","0","4","NA","space","4","NA","828","NA","801","828","NA","2","legacy","vertical","1024","2","48000","-16","experiment","3","odd","legacy","35587","NA","636","1442","35584","35689","NA","NA","641","37521","NA","36692","36693","NA","NA","Feature Shift Prototypes","0","14460","18","no","NA","no","1920","0","8"
"undefined","undefined","803","803","white","no","legacy","legacy","legacy","0","relative","undefined","NA","undefined","undefined","18","NA","0","0","18","18","NA","NA","0","18","0","18","18","0","0","Wed 30 Oct 2019 11:28:06 GMT","","yes","facialproto_short.osexp","/home/andy/svn/rmip/docs/openseslib","2","02-80.png","no","mono","no","18","no","black","no","no","1080","legacy","18","18","/home/andy/svn/rmip/docs/openseslib/subject-3.csv","legacy","Kafkaesque Koffka","3.2.7","exposure","0","6","NA","space","6","NA","797","NA","801","797","NA","2","legacy","horizontal","1024","2","48000","-16","experiment","3","odd","legacy","37603","NA","636","1442","37600","37705","NA","NA","641","39505","NA","38707","38708","NA","NA","Feature Shift Prototypes","0","15257","19","no","NA","no","1920","-8","0"
"undefined","undefined","802.25","802.25","white","no","legacy","legacy","legacy","0","relative","undefined","NA","undefined","undefined","19","NA","0","0","19","19","NA","NA","0","19","0","19","19","0","0","Wed 30 Oct 2019 11:28:06 GMT","","yes","facialproto_short.osexp","/home/andy/svn/rmip/docs/openseslib","3","030-8.png","no","mono","no","18","no","black","no","no","1080","legacy","19","19","/home/andy/svn/rmip/docs/openseslib/subject-3.csv","legacy","Kafkaesque Koffka","3.2.7","exposure","0","4","NA","space","4","NA","788","NA","801","788","NA","2","legacy","vertical","1024","2","48000","-16","experiment","3","odd","legacy","39604","NA","636","1442","39601","39706","NA","NA","641","41497","NA","40708","40709","NA","NA","Feature Shift Prototypes","0","16045","20","no","NA","no","1920","0","-8"
"undefined","undefined","799.761904762","799.761904762","white","no","legacy","legacy","legacy","0","relative","undefined","NA","undefined","undefined","20","NA","0","0","20","20","NA","NA","0","20","0","20","20","0","0","Wed 30 Oct 2019 11:28:06 GMT","","yes","facialproto_short.osexp","/home/andy/svn/rmip/docs/openseslib","2","0280.png","no","mono","no","18","no","black","no","no","1080","legacy","20","20","/home/andy/svn/rmip/docs/openseslib/subject-3.csv","legacy","Kafkaesque Koffka","3.2.7","exposure","0","6","NA","space","6","NA","750","NA","801","750","NA","2","legacy","horizontal","1024","2","48000","-16","experiment","3","odd","legacy","41603","NA","636","1442","41600","41705","NA","NA","641","43457","NA","42707","42707","NA","NA","Feature Shift Prototypes","0","16795","21","no","NA","no","1920","8","0"
"undefined","undefined","806.227272727","806.227272727","white","no","legacy","legacy","legacy","0","relative","undefined","NA","undefined","undefined","21","NA","0","0","21","21","NA","NA","0","21","0","21","21","0","0","Wed 30 Oct 2019 11:28:06 GMT","","yes","facialproto_short.osexp","/home/andy/svn/rmip/docs/openseslib","4","0480.png","no","mono","no","18","no","black","no","no","1080","legacy","21","21","/home/andy/svn/rmip/docs/openseslib/subject-3.csv","legacy","Kafkaesque Koffka","3.2.7","exposure","0","4","NA","space","4","NA","942","NA","801","942","NA","2","legacy","horizontal","1024","2","48000","-16","experiment","3","odd","legacy","43538","NA","636","1442","43535","43640","NA","NA","641","45585","NA","44642","44643","NA","NA","Feature Shift Prototypes","0","17737","22","no","NA","no","1920","8","0"
"undefined","undefined","803.434782609","803.434782609","white","no","legacy","legacy","legacy","0","relative","undefined","NA","undefined","undefined","22","NA","0","0","22","22","NA","NA","0","22","0","22","22","0","0","Wed 30 Oct 2019 11:28:06 GMT","","yes","facialproto_short.osexp","/home/andy/svn/rmip/docs/openseslib","1","0108.png","no","mono","no","18","no","black","no","no","1080","legacy","22","22","/home/andy/svn/rmip/docs/openseslib/subject-3.csv","legacy","Kafkaesque Koffka","3.2.7","exposure","0","6","NA","space","6","NA","742","NA","801","742","NA","2","legacy","vertical","1024","2","48000","-16","experiment","3","odd","legacy","45682","NA","636","1442","45679","45784","NA","NA","641","47529","NA","46787","46787","NA","NA","Feature Shift Prototypes","0","18479","23","no","NA","no","1920","0","8"
"undefined","undefined","803.708333333","803.708333333","white","no","legacy","legacy","legacy","0","relative","undefined","NA","undefined","undefined","23","NA","0","0","23","23","NA","NA","0","23","0","23","23","0","0","Wed 30 Oct 2019 11:28:06 GMT","","yes","facialproto_short.osexp","/home/andy/svn/rmip/docs/openseslib","3","030-8.png","no","mono","no","18","no","black","no","no","1080","legacy","23","23","/home/andy/svn/rmip/docs/openseslib/subject-3.csv","legacy","Kafkaesque Koffka","3.2.7","exposure","0","4","NA","space","4","NA","810","NA","801","810","NA","2","legacy","vertical","1024","2","48000","-16","experiment","3","odd","legacy","47623","NA","636","1442","47620","47725","NA","NA","641","49537","NA","48727","48727","NA","NA","Feature Shift Prototypes","0","19289","24","no","NA","no","1920","0","-8"
"undefined","undefined","802.12","802.12","white","no","legacy","legacy","legacy","0","relative","undefined","NA","undefined","undefined","24","NA","0","0","24","24","NA","NA","0","24","0","24","24","0","0","Wed 30 Oct 2019 11:28:06 GMT","","yes","facialproto_short.osexp","/home/andy/svn/rmip/docs/openseslib","1","010-8.png","no","mono","no","18","no","black","no","no","1080","legacy","24","24","/home/andy/svn/rmip/docs/openseslib/subject-3.csv","legacy","Kafkaesque Koffka","3.2.7","exposure","0","6","NA","space","6","NA","764","NA","801","764","NA","2","legacy","vertical","1024","2","48000","-16","experiment","3","odd","legacy","49619","NA","636","1442","49616","49721","NA","NA","641","51489","NA","50724","50724","NA","NA","Feature Shift Prototypes","0","20053","25","no","NA","no","1920","0","-8"
"undefined","undefined","797.769230769","797.769230769","white","no","legacy","legacy","legacy","0","relative","undefined","NA","undefined","undefined","25","NA","0","0","25","25","NA","NA","0","25","0","25","25","0","0","Wed 30 Oct 2019 11:28:06 GMT","","yes","facialproto_short.osexp","/home/andy/svn/rmip/docs/openseslib","8","0880.png","no","mono","no","18","no","black","no","no","1080","legacy","25","25","/home/andy/svn/rmip/docs/openseslib/subject-3.csv","legacy","Kafkaesque Koffka","3.2.7","exposure","0","4","NA","space","4","NA","689","NA","801","689","NA","2","legacy","horizontal","1024","2","48000","-16","experiment","3","odd","legacy","51588","NA","636","1442","51585","51701","NA","NA","641","53393","NA","52704","52704","NA","NA","Feature Shift Prototypes","0","20742","26","no","NA","no","1920","8","0"
"undefined","undefined","800.037037037","800.037037037","white","no","legacy","legacy","legacy","0","relative","undefined","NA","undefined","undefined","26","NA","0","0","26","26","NA","NA","0","26","0","26","26","0","0","Wed 30 Oct 2019 11:28:06 GMT","","yes","facialproto_short.osexp","/home/andy/svn/rmip/docs/openseslib","5","050-8.png","no","mono","no","18","no","black","no","no","1080","legacy","26","26","/home/andy/svn/rmip/docs/openseslib/subject-3.csv","legacy","Kafkaesque Koffka","3.2.7","exposure","0","6","NA","space","6","NA","859","NA","801","859","NA","2","legacy","vertical","1024","2","48000","-16","experiment","3","odd","legacy","53476","NA","636","1442","53473","53578","NA","NA","641","55441","NA","54580","54581","NA","NA","Feature Shift Prototypes","0","21601","27","no","NA","no","1920","0","-8"
"undefined","undefined","799.035714286","799.035714286","white","no","legacy","legacy","legacy","0","relative","undefined","NA","undefined","undefined","27","NA","0","0","27","27","NA","NA","0","27","0","27","27","0","0","Wed 30 Oct 2019 11:28:06 GMT","","yes","facialproto_short.osexp","/home/andy/svn/rmip/docs/openseslib","3","0308.png","no","mono","no","18","no","black","no","no","1080","legacy","27","27","/home/andy/svn/rmip/docs/openseslib/subject-3.csv","legacy","Kafkaesque Koffka","3.2.7","exposure","0","4","NA","space","4","NA","772","NA","801","772","NA","2","legacy","vertical","1024","2","48000","-16","experiment","3","odd","legacy","55523","NA","636","1442","55520","55625","NA","NA","641","57401","NA","56627","56628","NA","NA","Feature Shift Prototypes","0","22373","28","no","NA","no","1920","0","8"
"undefined","undefined","791.24137931","791.24137931","white","no","legacy","legacy","legacy","0","relative","undefined","NA","undefined","undefined","28","NA","0","0","28","28","NA","NA","0","28","0","28","28","0","0","Wed 30 Oct 2019 11:28:06 GMT","","yes","facialproto_short.osexp","/home/andy/svn/rmip/docs/openseslib","7","070-8.png","no","mono","no","18","no","black","no","no","1080","legacy","28","28","/home/andy/svn/rmip/docs/openseslib/subject-3.csv","legacy","Kafkaesque Koffka","3.2.7","exposure","0","5","NA","space","5","NA","573","NA","801","573","NA","2","legacy","vertical","1024","2","48000","-16","experiment","3","odd","legacy","57481","NA","636","1442","57479","57584","NA","NA","641","59159","NA","58586","58586","NA","NA","Feature Shift Prototypes","0","22946","29","no","NA","no","1920","0","-8"
"undefined","undefined","781.333333333","781.333333333","white","no","legacy","legacy","legacy","0","relative","undefined","NA","undefined","undefined","29","NA","0","0","29","29","NA","NA","0","29","0","29","29","0","0","Wed 30 Oct 2019 11:28:06 GMT","","yes","facialproto_short.osexp","/home/andy/svn/rmip/docs/openseslib","5","050-8.png","no","mono","no","18","no","black","no","no","1080","legacy","29","29","/home/andy/svn/rmip/docs/openseslib/subject-3.csv","legacy","Kafkaesque Koffka","3.2.7","exposure","0","3","NA","space","3","NA","494","NA","801","494","NA","2","legacy","vertical","1024","2","48000","-16","experiment","3","odd","legacy","59259","NA","636","1442","59256","59361","NA","NA","641","60858","NA","60363","60363","NA","NA","Feature Shift Prototypes","0","23440","30","no","NA","no","1920","0","-8"
"undefined","undefined","776.193548387","776.193548387","white","no","legacy","legacy","legacy","0","relative","undefined","NA","undefined","undefined","30","NA","0","0","30","30","NA","NA","0","30","0","30","30","0","0","Wed 30 Oct 2019 11:28:06 GMT","","yes","facialproto_short.osexp","/home/andy/svn/rmip/docs/openseslib","7","0708.png","no","mono","no","18","no","black","no","no","1080","legacy","30","30","/home/andy/svn/rmip/docs/openseslib/subject-3.csv","legacy","Kafkaesque Koffka","3.2.7","exposure","0","6","NA","space","6","NA","622","NA","801","622","NA","2","legacy","vertical","1024","2","48000","-16","experiment","3","odd","legacy","60938","NA","636","1442","60936","61040","NA","NA","641","62664","NA","62042","62042","NA","NA","Feature Shift Prototypes","0","24062","31","no","NA","no","1920","0","8"
"undefined","undefined","768.5","768.5","white","no","legacy","legacy","legacy","0","relative","undefined","NA","undefined","undefined","31","NA","0","0","31","31","NA","NA","0","31","0","31","31","0","0","Wed 30 Oct 2019 11:28:06 GMT","","yes","facialproto_short.osexp","/home/andy/svn/rmip/docs/openseslib","5","0508.png","no","mono","no","18","no","black","no","no","1080","legacy","31","31","/home/andy/svn/rmip/docs/openseslib/subject-3.csv","legacy","Kafkaesque Koffka","3.2.7","exposure","0","4","NA","space","4","NA","530","NA","801","530","NA","2","legacy","vertical","1024","2","48000","-16","experiment","3","odd","legacy","62758","NA","636","1442","62755","62860","NA","NA","641","64393","NA","63862","63862","NA","NA","Feature Shift Prototypes","0","24592","32","no","NA","no","1920","0","8"
"undefined","undefined","785.606060606","785.606060606","white","no","legacy","legacy","legacy","0","relative","undefined","undefined","undefined","undefined","32","0","0","0","31","31","0","0","0","32","0","31","31","0","0","Wed 30 Oct 2019 11:28:06 GMT","","yes","facialproto_short.osexp","/home/andy/svn/rmip/docs/openseslib","1","01012.png","no","mono","no","18","no","black","no","no","1080","legacy","0","31","/home/andy/svn/rmip/docs/openseslib/subject-3.csv","legacy","Kafkaesque Koffka","3.2.7","test","0","7","7","space","4","space","1333","1333","801","530","985","2","legacy","vertical","1024","2","48000","-16","experiment","3","odd","legacy","65461","65458","636","1442","62755","62860","65564","65564","641","66898","NA","63862","63862","65425","64439","Feature Shift Prototypes","0","25925","33","no","unseen","no","1920","0","12"
"undefined","undefined","778.852941176","778.852941176","white","no","legacy","legacy","legacy","0","relative","undefined","undefined","undefined","undefined","33","1","0","0","31","31","1","1","0","33","0","31","31","0","0","Wed 30 Oct 2019 11:28:06 GMT","","yes","facialproto_short.osexp","/home/andy/svn/rmip/docs/openseslib","3","0300.png","no","mono","no","18","no","black","no","no","1080","legacy","1","31","/home/andy/svn/rmip/docs/openseslib/subject-3.csv","legacy","Kafkaesque Koffka","3.2.7","test","0","3","3","space","4","space","556","556","801","530","985","2","legacy","vertical","1024","2","48000","-16","experiment","3","odd","legacy","66973","66971","636","1442","62755","62860","67076","67076","641","67633","NA","63862","63862","65425","64439","Feature Shift Prototypes","0","26481","34","no","prototype","no","1920","0","0"
"undefined","undefined","766.342857143","766.342857143","white","no","legacy","legacy","legacy","0","relative","undefined","undefined","undefined","undefined","34","2","0","0","31","31","2","2","0","34","0","31","31","0","0","Wed 30 Oct 2019 11:28:06 GMT","","yes","facialproto_short.osexp","/home/andy/svn/rmip/docs/openseslib","5","05012.png","no","mono","no","18","no","black","no","no","1080","legacy","2","31","/home/andy/svn/rmip/docs/openseslib/subject-3.csv","legacy","Kafkaesque Koffka","3.2.7","test","0","4","4","space","4","space","341","341","801","530","985","2","legacy","vertical","1024","2","48000","-16","experiment","3","odd","legacy","67733","67729","636","1442","62755","62860","67835","67835","641","68177","NA","63862","63862","65425","64439","Feature Shift Prototypes","0","26822","35","no","unseen","no","1920","0","12"
"undefined","undefined","751.861111111","751.861111111","white","no","legacy","legacy","legacy","0","relative","undefined","undefined","undefined","undefined","35","3","0","0","31","31","3","3","0","35","0","31","31","0","0","Wed 30 Oct 2019 11:28:06 GMT","","yes","facialproto_short.osexp","/home/andy/svn/rmip/docs/openseslib","2","02-80.png","no","mono","no","18","no","black","no","no","1080","legacy","3","31","/home/andy/svn/rmip/docs/openseslib/subject-3.csv","legacy","Kafkaesque Koffka","3.2.7","test","0","6","6","space","4","space","245","245","801","530","985","2","legacy","horizontal","1024","2","48000","-16","experiment","3","odd","legacy","68260","68257","636","1442","62755","62860","68362","68363","641","68608","NA","63862","63862","65425","64439","Feature Shift Prototypes","0","27067","36","no","seen","no","1920","-8","0"
"undefined","undefined","738.837837838","738.837837838","white","no","legacy","legacy","legacy","0","relative","undefined","undefined","undefined","undefined","36","4","0","0","31","31","4","4","0","36","0","31","31","0","0","Wed 30 Oct 2019 11:28:06 GMT","","yes","facialproto_short.osexp","/home/andy/svn/rmip/docs/openseslib","3","0308.png","no","mono","no","18","no","black","no","no","1080","legacy","4","31","/home/andy/svn/rmip/docs/openseslib/subject-3.csv","legacy","Kafkaesque Koffka","3.2.7","test","0","2","2","space","4","space","270","270","801","530","985","2","legacy","vertical","1024","2","48000","-16","experiment","3","odd","legacy","68683","68680","636","1442","62755","62860","68785","68786","641","69057","NA","63862","63862","65425","64439","Feature Shift Prototypes","0","27337","37","no","seen","no","1920","0","8"
"undefined","undefined","737.763157895","737.763157895","white","no","legacy","legacy","legacy","0","relative","undefined","undefined","undefined","undefined","37","5","0","0","31","31","5","5","0","37","0","31","31","0","0","Wed 30 Oct 2019 11:28:06 GMT","","yes","facialproto_short.osexp","/home/andy/svn/rmip/docs/openseslib","7","0700.png","no","mono","no","18","no","black","no","no","1080","legacy","5","31","/home/andy/svn/rmip/docs/openseslib/subject-3.csv","legacy","Kafkaesque Koffka","3.2.7","test","0","6","6","space","4","space","698","698","801","530","985","2","legacy","vertical","1024","2","48000","-16","experiment","3","odd","legacy","69128","69125","636","1442","62755","62860","69230","69230","641","69930","NA","63862","63862","65425","64439","Feature Shift Prototypes","0","28035","38","no","prototype","no","1920","0","0"
"undefined","undefined","736.461538462","736.461538462","white","no","legacy","legacy","legacy","0","relative","undefined","undefined","undefined","undefined","38","6","0","0","31","31","6","6","0","38","0","31","31","0","0","Wed 30 Oct 2019 11:28:06 GMT","","yes","facialproto_short.osexp","/home/andy/svn/rmip/docs/openseslib","8","0800.png","no","mono","no","18","no","black","no","no","1080","legacy","6","31","/home/andy/svn/rmip/docs/openseslib/subject-3.csv","legacy","Kafkaesque Koffka","3.2.7","test","0","3","3","space","4","space","687","687","801","530","985","2","legacy","horizontal","1024","2","48000","-16","experiment","3","odd","legacy","70011","70008","636","1442","62755","62860","70113","70114","641","70801","NA","63862","63862","65425","64439","Feature Shift Prototypes","0","28722","39","no","prototype","no","1920","0","0"
"undefined","undefined","736.225","736.225","white","no","legacy","legacy","legacy","0","relative","undefined","undefined","undefined","undefined","39","7","0","0","31","31","7","7","0","39","0","31","31","0","0","Wed 30 Oct 2019 11:28:06 GMT","","yes","facialproto_short.osexp","/home/andy/svn/rmip/docs/openseslib","7","070-12.png","no","mono","no","18","no","black","no","no","1080","legacy","7","31","/home/andy/svn/rmip/docs/openseslib/subject-3.csv","legacy","Kafkaesque Koffka","3.2.7","test","0","6","6","space","4","space","727","727","801","530","985","2","legacy","vertical","1024","2","48000","-16","experiment","3","odd","legacy","70891","70888","636","1442","62755","62860","70993","70993","641","71720","NA","63862","63862","65425","64439","Feature Shift Prototypes","0","29449","40","no","unseen","no","1920","0","-12"
"undefined","undefined","733.170731707","733.170731707","white","no","legacy","legacy","legacy","0","relative","undefined","undefined","undefined","undefined","40","8","0","0","31","31","8","8","0","40","0","31","31","0","0","Wed 30 Oct 2019 11:28:06 GMT","","yes","facialproto_short.osexp","/home/andy/svn/rmip/docs/openseslib","8","0880.png","no","mono","no","18","no","black","no","no","1080","legacy","8","31","/home/andy/svn/rmip/docs/openseslib/subject-3.csv","legacy","Kafkaesque Koffka","3.2.7","test","0","5","5","space","4","space","611","611","801","530","985","2","legacy","horizontal","1024","2","48000","-16","experiment","3","odd","legacy","71806","71803","636","1442","62755","62860","71909","71909","641","72520","NA","63862","63862","65425","64439","Feature Shift Prototypes","0","30060","41","no","seen","no","1920","8","0"
"undefined","undefined","735.047619048","735.047619048","white","no","legacy","legacy","legacy","0","relative","undefined","undefined","undefined","undefined","41","9","0","0","31","31","9","9","0","41","0","31","31","0","0","Wed 30 Oct 2019 11:28:06 GMT","","yes","facialproto_short.osexp","/home/andy/svn/rmip/docs/openseslib","4","0480.png","no","mono","no","18","no","black","no","no","1080","legacy","9","31","/home/andy/svn/rmip/docs/openseslib/subject-3.csv","legacy","Kafkaesque Koffka","3.2.7","test","0","3","3","space","4","space","812","812","801","530","985","2","legacy","horizontal","1024","2","48000","-16","experiment","3","odd","legacy","72596","72593","636","1442","62755","62860","72699","72700","641","73513","NA","63862","63862","65425","64439","Feature Shift Prototypes","0","30872","42","no","seen","no","1920","8","0"
"undefined","undefined","727.139534884","727.139534884","white","no","legacy","legacy","legacy","0","relative","undefined","undefined","undefined","undefined","42","10","0","0","31","31","10","10","0","42","0","31","31","0","0","Wed 30 Oct 2019 11:28:06 GMT","","yes","facialproto_short.osexp","/home/andy/svn/rmip/docs/openseslib","6","0600.png","no","mono","no","18","no","black","no","no","1080","legacy","10","31","/home/andy/svn/rmip/docs/openseslib/subject-3.csv","legacy","Kafkaesque Koffka","3.2.7","test","0","4","4","space","4","space","395","395","801","530","985","2","legacy","horizontal","1024","2","48000","-16","experiment","3","odd","legacy","73606","73603","636","1442","62755","62860","73708","73709","641","74105","NA","63862","63862","65425","64439","Feature Shift Prototypes","0","31267","43","no","prototype","no","1920","0","0"
"undefined","undefined","722.068181818","722.068181818","white","no","legacy","legacy","legacy","0","relative","undefined","undefined","undefined","undefined","43","11","0","0","31","31","11","11","0","43","0","31","31","0","0","Wed 30 Oct 2019 11:28:06 GMT","","yes","facialproto_short.osexp","/home/andy/svn/rmip/docs/openseslib","5","0500.png","no","mono","no","18","no","black","no","no","1080","legacy","11","31","/home/andy/svn/rmip/docs/openseslib/subject-3.csv","legacy","Kafkaesque Koffka","3.2.7","test","0","7","7","space","4","space","504","504","801","530","985","2","legacy","vertical","1024","2","48000","-16","experiment","3","odd","legacy","74195","74192","636","1442","62755","62860","74297","74297","641","74801","NA","63862","63862","65425","64439","Feature Shift Prototypes","0","31771","44","no","prototype","no","1920","0","0"
"undefined","undefined","714.711111111","714.711111111","white","no","legacy","legacy","legacy","0","relative","undefined","undefined","undefined","undefined","44","12","0","0","31","31","12","12","0","44","0","31","31","0","0","Wed 30 Oct 2019 11:28:06 GMT","","yes","facialproto_short.osexp","/home/andy/svn/rmip/docs/openseslib","3","030-12.png","no","mono","no","18","no","black","no","no","1080","legacy","12","31","/home/andy/svn/rmip/docs/openseslib/subject-3.csv","legacy","Kafkaesque Koffka","3.2.7","test","0","3","3","space","4","space","391","391","801","530","985","2","legacy","vertical","1024","2","48000","-16","experiment","3","odd","legacy","74874","74871","636","1442","62755","62860","74976","74977","641","75368","NA","63862","63862","65425","64439","Feature Shift Prototypes","0","32162","45","no","unseen","no","1920","0","-12"
"undefined","undefined","708.086956522","708.086956522","white","no","legacy","legacy","legacy","0","relative","undefined","undefined","undefined","undefined","45","13","0","0","31","31","13","13","0","45","0","31","31","0","0","Wed 30 Oct 2019 11:28:06 GMT","","yes","facialproto_short.osexp","/home/andy/svn/rmip/docs/openseslib","6","06-80.png","no","mono","no","18","no","black","no","no","1080","legacy","13","31","/home/andy/svn/rmip/docs/openseslib/subject-3.csv","legacy","Kafkaesque Koffka","3.2.7","test","0","5","5","space","4","space","410","410","801","530","985","2","legacy","horizontal","1024","2","48000","-16","experiment","3","odd","legacy","75441","75438","636","1442","62755","62860","75543","75543","641","75953","NA","63862","63862","65425","64439","Feature Shift Prototypes","0","32572","46","no","seen","no","1920","-8","0"
"undefined","undefined","705.808510638","705.808510638","white","no","legacy","legacy","legacy","0","relative","undefined","undefined","undefined","undefined","46","14","0","0","31","31","14","14","0","46","0","31","31","0","0","Wed 30 Oct 2019 11:28:06 GMT","","yes","facialproto_short.osexp","/home/andy/svn/rmip/docs/openseslib","1","010-8.png","no","mono","no","18","no","black","no","no","1080","legacy","14","31","/home/andy/svn/rmip/docs/openseslib/subject-3.csv","legacy","Kafkaesque Koffka","3.2.7","test","0","3","3","space","4","space","601","601","801","530","985","2","legacy","vertical","1024","2","48000","-16","experiment","3","odd","legacy","76024","76022","636","1442","62755","62860","76127","76127","641","76729","NA","63862","63862","65425","64439","Feature Shift Prototypes","0","33173","47","no","seen","no","1920","0","-8"
"undefined","undefined","703.479166667","703.479166667","white","no","legacy","legacy","legacy","0","relative","undefined","undefined","undefined","undefined","47","15","0","0","31","31","15","15","0","47","0","31","31","0","0","Wed 30 Oct 2019 11:28:06 GMT","","yes","facialproto_short.osexp","/home/andy/svn/rmip/docs/openseslib","4","04-120.png","no","mono","no","18","no","black","no","no","1080","legacy","15","31","/home/andy/svn/rmip/docs/openseslib/subject-3.csv","legacy","Kafkaesque Koffka","3.2.7","test","0","6","6","space","4","space","594","594","801","530","985","2","legacy","horizontal","1024","2","48000","-16","experiment","3","odd","legacy","76822","76820","636","1442","62755","62860","76926","76926","641","77520","NA","63862","63862","65425","64439","Feature Shift Prototypes","0","33767","48","no","unseen","no","1920","-12","0"
"undefined","undefined","696.306122449","696.306122449","white","no","legacy","legacy","legacy","0","relative","undefined","undefined","undefined","undefined","48","16","0","0","31","31","16","16","0","48","0","31","31","0","0","Wed 30 Oct 2019 11:28:06 GMT","","yes","facialproto_short.osexp","/home/andy/svn/rmip/docs/openseslib","4","0400.png","no","mono","no","18","no","black","no","no","1080","legacy","16","31","/home/andy/svn/rmip/docs/openseslib/subject-3.csv","legacy","Kafkaesque Koffka","3.2.7","test","0","5","5","space","4","space","352","352","801","530","985","2","legacy","horizontal","1024","2","48000","-16","experiment","3","odd","legacy","77593","77590","636","1442","62755","62860","77695","77696","641","78048","NA","63862","63862","65425","64439","Feature Shift Prototypes","0","34119","49","no","prototype","no","1920","0","0"
"undefined","undefined","691.68","691.68","white","no","legacy","legacy","legacy","0","relative","undefined","undefined","undefined","undefined","49","17","0","0","31","31","17","17","0","49","0","31","31","0","0","Wed 30 Oct 2019 11:28:06 GMT","","yes","facialproto_short.osexp","/home/andy/svn/rmip/docs/openseslib","5","050-8.png","no","mono","no","18","no","black","no","no","1080","legacy","17","31","/home/andy/svn/rmip/docs/openseslib/subject-3.csv","legacy","Kafkaesque Koffka","3.2.7","test","0","3","3","space","4","space","465","465","801","530","985","2","legacy","vertical","1024","2","48000","-16","experiment","3","odd","legacy","78121","78118","636","1442","62755","62860","78223","78223","641","78688","NA","63862","63862","65425","64439","Feature Shift Prototypes","0","34584","50","no","seen","no","1920","0","-8"
"undefined","undefined","686.784313725","686.784313725","white","no","legacy","legacy","legacy","0","relative","undefined","undefined","undefined","undefined","50","18","0","0","31","31","18","18","0","50","0","31","31","0","0","Wed 30 Oct 2019 11:28:06 GMT","","yes","facialproto_short.osexp","/home/andy/svn/rmip/docs/openseslib","2","0200.png","no","mono","no","18","no","black","no","no","1080","legacy","18","31","/home/andy/svn/rmip/docs/openseslib/subject-3.csv","legacy","Kafkaesque Koffka","3.2.7","test","0","4","4","space","4","space","442","442","801","530","985","2","legacy","horizontal","1024","2","48000","-16","experiment","3","odd","legacy","78767","78764","636","1442","62755","62860","78870","78870","641","79312","NA","63862","63862","65425","64439","Feature Shift Prototypes","0","35026","51","no","prototype","no","1920","0","0"
"undefined","undefined","679.903846154","679.903846154","white","no","legacy","legacy","legacy","0","relative","undefined","undefined","undefined","undefined","51","19","0","0","31","31","19","19","0","51","0","31","31","0","0","Wed 30 Oct 2019 11:28:06 GMT","","yes","facialproto_short.osexp","/home/andy/svn/rmip/docs/openseslib","8","08-120.png","no","mono","no","18","no","black","no","no","1080","legacy","19","31","/home/andy/svn/rmip/docs/openseslib/subject-3.csv","legacy","Kafkaesque Koffka","3.2.7","test","0","5","5","space","4","space","329","329","801","530","985","2","legacy","horizontal","1024","2","48000","-16","experiment","3","odd","legacy","79394","79391","636","1442","62755","62860","79496","79496","641","79825","NA","63862","63862","65425","64439","Feature Shift Prototypes","0","35355","52","no","unseen","no","1920","-12","0"
"undefined","undefined","674.169811321","674.169811321","white","no","legacy","legacy","legacy","0","relative","undefined","undefined","undefined","undefined","52","20","0","0","31","31","20","20","0","52","0","31","31","0","0","Wed 30 Oct 2019 11:28:06 GMT","","yes","facialproto_short.osexp","/home/andy/svn/rmip/docs/openseslib","1","0100.png","no","mono","no","18","no","black","no","no","1080","legacy","20","31","/home/andy/svn/rmip/docs/openseslib/subject-3.csv","legacy","Kafkaesque Koffka","3.2.7","test","0","6","6","space","4","space","376","376","801","530","985","2","legacy","vertical","1024","2","48000","-16","experiment","3","odd","legacy","79898","79895","636","1442","62755","62860","80000","80000","641","80377","NA","63862","63862","65425","64439","Feature Shift Prototypes","0","35731","53","no","prototype","no","1920","0","0"
"undefined","undefined","672.444444444","672.444444444","white","no","legacy","legacy","legacy","0","relative","undefined","undefined","undefined","undefined","53","21","0","0","31","31","21","21","0","53","0","31","31","0","0","Wed 30 Oct 2019 11:28:06 GMT","","yes","facialproto_short.osexp","/home/andy/svn/rmip/docs/openseslib","7","0708.png","no","mono","no","18","no","black","no","no","1080","legacy","21","31","/home/andy/svn/rmip/docs/openseslib/subject-3.csv","legacy","Kafkaesque Koffka","3.2.7","test","0","4","4","space","4","space","581","581","801","530","985","2","legacy","vertical","1024","2","48000","-16","experiment","3","odd","legacy","80461","80458","636","1442","62755","62860","80563","80563","641","81144","NA","63862","63862","65425","64439","Feature Shift Prototypes","0","36312","54","no","seen","no","1920","0","8"
"undefined","undefined","666.036363636","666.036363636","white","no","legacy","legacy","legacy","0","relative","undefined","undefined","undefined","undefined","54","22","0","0","31","31","22","22","0","54","0","31","31","0","0","Wed 30 Oct 2019 11:28:06 GMT","","yes","facialproto_short.osexp","/home/andy/svn/rmip/docs/openseslib","2","02120.png","no","mono","no","18","no","black","no","no","1080","legacy","22","31","/home/andy/svn/rmip/docs/openseslib/subject-3.csv","legacy","Kafkaesque Koffka","3.2.7","test","0","3","3","space","4","space","320","320","801","530","985","2","legacy","horizontal","1024","2","48000","-16","experiment","3","odd","legacy","81224","81221","636","1442","62755","62860","81327","81328","641","81649","NA","63862","63862","65425","64439","Feature Shift Prototypes","0","36632","55","no","unseen","no","1920","12","0"
"undefined","undefined","664.232142857","664.232142857","white","no","legacy","legacy","legacy","0","relative","undefined","undefined","undefined","undefined","55","23","0","0","31","31","23","23","0","55","0","31","31","0","0","Wed 30 Oct 2019 11:28:06 GMT","","yes","facialproto_short.osexp","/home/andy/svn/rmip/docs/openseslib","6","06120.png","no","mono","no","18","no","black","no","no","1080","legacy","23","31","/home/andy/svn/rmip/docs/openseslib/subject-3.csv","legacy","Kafkaesque Koffka","3.2.7","test","0","6","6","space","4","space","565","565","801","530","985","2","legacy","horizontal","1024","2","48000","-16","experiment","3","odd","legacy","81724","81722","636","1442","62755","62860","81827","81827","641","82392","NA","63862","63862","65425","64439","Feature Shift Prototypes","0","37197","56","no","unseen","no","1920","12","0"
