"acc","accuracy","average_response_time","avg_rt","background","bidi","canvas_backend","clock_backend","color_backend","compensation","coordinates","correct","correct_facetest_response","correct_instructions","correct_sexrating_response","count_blank100","count_exemplarsequence","count_experiment","count_exposure","count_exposuresequence","count_faceexpose","count_facetest","count_facetest_response","count_instructions","count_logger","count_notes","count_sexrating","count_sexrating_response","count_test","count_testinstructions","datetime","description","disable_garbage_collection","experiment_file","experiment_path","faceno","fname","font_bold","font_family","font_italic","font_size","font_underline","foreground","form_clicks","fullscreen","height","keyboard_backend","live_row","live_row_exposure","logfile","mouse_backend","opensesame_codename","opensesame_version","phase","repeat_cycle","response","response_facetest_response","response_instructions","response_sexrating_response","response_testinstructions","response_time","response_time_facetest_response","response_time_instructions","response_time_sexrating_response","response_time_testinstructions","round_decimals","sampler_backend","shifttype","sound_buf_size","sound_channels","sound_freq","sound_sample_size","start","subject_nr","subject_parity","synth_backend","time_blank100","time_exemplarsequence","time_experiment","time_exposure","time_exposuresequence","time_faceexpose","time_facetest","time_facetest_response","time_instructions","time_logger","time_notes","time_sexrating","time_sexrating_response","time_test","time_testinstructions","title","total_correct","total_response_time","total_responses","transparent_variables","type","uniform_coordinates","width","xshift","yshift"
"undefined","undefined","1295","1295","white","no","legacy","legacy","legacy","0","relative","undefined","NA","undefined","undefined","0","NA","0","0","0","0","NA","NA","0","0","0","0","0","0","0","Thu 31 Oct 2019 11:43:21 GMT","","yes","facialproto_short.osexp","/home/andy/svn/rmip/docs/openseslib","3","0308.png","no","mono","no","18","no","black","no","no","1080","legacy","0","0","/home/andy/svn/rmip/docs/openseslib/subject-12.csv","legacy","Kafkaesque Koffka","3.2.7","exposure","0","6","NA","space","6","NA","1295","NA","922","1295","NA","2","legacy","vertical","1024","2","48000","-16","experiment","12","even","legacy","1696","NA","686","1619","1693","1799","NA","NA","696","4098","NA","2801","2802","NA","NA","Feature Shift Prototypes","0","1295","1","no","NA","no","1920","0","8"
"undefined","undefined","648.5","648.5","white","no","legacy","legacy","legacy","0","relative","undefined","NA","undefined","undefined","1","NA","0","0","1","1","NA","NA","0","1","0","1","1","0","0","Thu 31 Oct 2019 11:43:21 GMT","","yes","facialproto_short.osexp","/home/andy/svn/rmip/docs/openseslib","6","06-80.png","no","mono","no","18","no","black","no","no","1080","legacy","1","1","/home/andy/svn/rmip/docs/openseslib/subject-12.csv","legacy","Kafkaesque Koffka","3.2.7","exposure","0","4","NA","space","4","NA","2","NA","922","2","NA","2","legacy","horizontal","1024","2","48000","-16","experiment","12","even","legacy","4250","NA","686","1619","4246","4354","NA","NA","696","5360","NA","5356","5357","NA","NA","Feature Shift Prototypes","0","1297","2","no","NA","no","1920","-8","0"
"undefined","undefined","617","617","white","no","legacy","legacy","legacy","0","relative","undefined","NA","undefined","undefined","2","NA","0","0","2","2","NA","NA","0","2","0","2","2","0","0","Thu 31 Oct 2019 11:43:21 GMT","","yes","facialproto_short.osexp","/home/andy/svn/rmip/docs/openseslib","7","070-8.png","no","mono","no","18","no","black","no","no","1080","legacy","2","2","/home/andy/svn/rmip/docs/openseslib/subject-12.csv","legacy","Kafkaesque Koffka","3.2.7","exposure","0","6","NA","space","6","NA","554","NA","922","554","NA","2","legacy","vertical","1024","2","48000","-16","experiment","12","even","legacy","5455","NA","686","1619","5452","5557","NA","NA","696","7113","NA","6559","6559","NA","NA","Feature Shift Prototypes","0","1851","3","no","NA","no","1920","0","-8"
"undefined","undefined","581.5","581.5","white","no","legacy","legacy","legacy","0","relative","undefined","NA","undefined","undefined","3","NA","0","0","3","3","NA","NA","0","3","0","3","3","0","0","Thu 31 Oct 2019 11:43:21 GMT","","yes","facialproto_short.osexp","/home/andy/svn/rmip/docs/openseslib","5","050-8.png","no","mono","no","18","no","black","no","no","1080","legacy","3","3","/home/andy/svn/rmip/docs/openseslib/subject-12.csv","legacy","Kafkaesque Koffka","3.2.7","exposure","0","4","NA","space","4","NA","475","NA","922","475","NA","2","legacy","vertical","1024","2","48000","-16","experiment","12","even","legacy","7196","NA","686","1619","7193","7300","NA","NA","696","8779","NA","8302","8303","NA","NA","Feature Shift Prototypes","0","2326","4","no","NA","no","1920","0","-8"
"undefined","undefined","544.2","544.2","white","no","legacy","legacy","legacy","0","relative","undefined","NA","undefined","undefined","4","NA","0","0","4","4","NA","NA","0","4","0","4","4","0","0","Thu 31 Oct 2019 11:43:21 GMT","","yes","facialproto_short.osexp","/home/andy/svn/rmip/docs/openseslib","1","0108.png","no","mono","no","18","no","black","no","no","1080","legacy","4","4","/home/andy/svn/rmip/docs/openseslib/subject-12.csv","legacy","Kafkaesque Koffka","3.2.7","exposure","0","7","NA","space","7","NA","395","NA","922","395","NA","2","legacy","vertical","1024","2","48000","-16","experiment","12","even","legacy","8860","NA","686","1619","8857","8964","NA","NA","696","10362","NA","9967","9967","NA","NA","Feature Shift Prototypes","0","2721","5","no","NA","no","1920","0","8"
"undefined","undefined","516.333333333","516.333333333","white","no","legacy","legacy","legacy","0","relative","undefined","NA","undefined","undefined","5","NA","0","0","5","5","NA","NA","0","5","0","5","5","0","0","Thu 31 Oct 2019 11:43:21 GMT","","yes","facialproto_short.osexp","/home/andy/svn/rmip/docs/openseslib","1","0108.png","no","mono","no","18","no","black","no","no","1080","legacy","5","5","/home/andy/svn/rmip/docs/openseslib/subject-12.csv","legacy","Kafkaesque Koffka","3.2.7","exposure","0","5","NA","space","5","NA","377","NA","922","377","NA","2","legacy","vertical","1024","2","48000","-16","experiment","12","even","legacy","10447","NA","686","1619","10444","10550","NA","NA","696","11931","NA","11552","11553","NA","NA","Feature Shift Prototypes","0","3098","6","no","NA","no","1920","0","8"
"undefined","undefined","512","512","white","no","legacy","legacy","legacy","0","relative","undefined","NA","undefined","undefined","6","NA","0","0","6","6","NA","NA","0","6","0","6","6","0","0","Thu 31 Oct 2019 11:43:21 GMT","","yes","facialproto_short.osexp","/home/andy/svn/rmip/docs/openseslib","5","050-8.png","no","mono","no","18","no","black","no","no","1080","legacy","6","6","/home/andy/svn/rmip/docs/openseslib/subject-12.csv","legacy","Kafkaesque Koffka","3.2.7","exposure","0","4","NA","space","4","NA","486","NA","922","486","NA","2","legacy","vertical","1024","2","48000","-16","experiment","12","even","legacy","12011","NA","686","1619","12008","12113","NA","NA","696","13603","NA","13115","13116","NA","NA","Feature Shift Prototypes","0","3584","7","no","NA","no","1920","0","-8"
"undefined","undefined","508.875","508.875","white","no","legacy","legacy","legacy","0","relative","undefined","NA","undefined","undefined","7","NA","0","0","7","7","NA","NA","0","7","0","7","7","0","0","Thu 31 Oct 2019 11:43:21 GMT","","yes","facialproto_short.osexp","/home/andy/svn/rmip/docs/openseslib","5","0508.png","no","mono","no","18","no","black","no","no","1080","legacy","7","7","/home/andy/svn/rmip/docs/openseslib/subject-12.csv","legacy","Kafkaesque Koffka","3.2.7","exposure","0","5","NA","space","5","NA","487","NA","922","487","NA","2","legacy","vertical","1024","2","48000","-16","experiment","12","even","legacy","13704","NA","686","1619","13701","13806","NA","NA","696","15298","NA","14809","14810","NA","NA","Feature Shift Prototypes","0","4071","8","no","NA","no","1920","0","8"
"undefined","undefined","502.555555556","502.555555556","white","no","legacy","legacy","legacy","0","relative","undefined","NA","undefined","undefined","8","NA","0","0","8","8","NA","NA","0","8","0","8","8","0","0","Thu 31 Oct 2019 11:43:21 GMT","","yes","facialproto_short.osexp","/home/andy/svn/rmip/docs/openseslib","6","06-80.png","no","mono","no","18","no","black","no","no","1080","legacy","8","8","/home/andy/svn/rmip/docs/openseslib/subject-12.csv","legacy","Kafkaesque Koffka","3.2.7","exposure","0","6","NA","space","6","NA","452","NA","922","452","NA","2","legacy","horizontal","1024","2","48000","-16","experiment","12","even","legacy","15412","NA","686","1619","15409","15514","NA","NA","696","16970","NA","16517","16518","NA","NA","Feature Shift Prototypes","0","4523","9","no","NA","no","1920","-8","0"
"undefined","undefined","496.1","496.1","white","no","legacy","legacy","legacy","0","relative","undefined","NA","undefined","undefined","9","NA","0","0","9","9","NA","NA","0","9","0","9","9","0","0","Thu 31 Oct 2019 11:43:21 GMT","","yes","facialproto_short.osexp","/home/andy/svn/rmip/docs/openseslib","6","0680.png","no","mono","no","18","no","black","no","no","1080","legacy","9","9","/home/andy/svn/rmip/docs/openseslib/subject-12.csv","legacy","Kafkaesque Koffka","3.2.7","exposure","0","7","NA","space","7","NA","438","NA","922","438","NA","2","legacy","horizontal","1024","2","48000","-16","experiment","12","even","legacy","17067","NA","686","1619","17064","17170","NA","NA","696","18611","NA","18172","18172","NA","NA","Feature Shift Prototypes","0","4961","10","no","NA","no","1920","8","0"
"undefined","undefined","488.727272727","488.727272727","white","no","legacy","legacy","legacy","0","relative","undefined","NA","undefined","undefined","10","NA","0","0","10","10","NA","NA","0","10","0","10","10","0","0","Thu 31 Oct 2019 11:43:21 GMT","","yes","facialproto_short.osexp","/home/andy/svn/rmip/docs/openseslib","8","0880.png","no","mono","no","18","no","black","no","no","1080","legacy","10","10","/home/andy/svn/rmip/docs/openseslib/subject-12.csv","legacy","Kafkaesque Koffka","3.2.7","exposure","0","5","NA","space","5","NA","415","NA","922","415","NA","2","legacy","horizontal","1024","2","48000","-16","experiment","12","even","legacy","18710","NA","686","1619","18707","18814","NA","NA","696","20233","NA","19817","19818","NA","NA","Feature Shift Prototypes","0","5376","11","no","NA","no","1920","8","0"
"undefined","undefined","495.166666667","495.166666667","white","no","legacy","legacy","legacy","0","relative","undefined","NA","undefined","undefined","11","NA","0","0","11","11","NA","NA","0","11","0","11","11","0","0","Thu 31 Oct 2019 11:43:21 GMT","","yes","facialproto_short.osexp","/home/andy/svn/rmip/docs/openseslib","8","0880.png","no","mono","no","18","no","black","no","no","1080","legacy","11","11","/home/andy/svn/rmip/docs/openseslib/subject-12.csv","legacy","Kafkaesque Koffka","3.2.7","exposure","0","4","NA","space","4","NA","566","NA","922","566","NA","2","legacy","horizontal","1024","2","48000","-16","experiment","12","even","legacy","20315","NA","686","1619","20312","20418","NA","NA","696","21987","NA","21420","21421","NA","NA","Feature Shift Prototypes","0","5942","12","no","NA","no","1920","8","0"
"undefined","undefined","490.692307692","490.692307692","white","no","legacy","legacy","legacy","0","relative","undefined","NA","undefined","undefined","12","NA","0","0","12","12","NA","NA","0","12","0","12","12","0","0","Thu 31 Oct 2019 11:43:21 GMT","","yes","facialproto_short.osexp","/home/andy/svn/rmip/docs/openseslib","7","0708.png","no","mono","no","18","no","black","no","no","1080","legacy","12","12","/home/andy/svn/rmip/docs/openseslib/subject-12.csv","legacy","Kafkaesque Koffka","3.2.7","exposure","0","7","NA","space","7","NA","437","NA","922","437","NA","2","legacy","vertical","1024","2","48000","-16","experiment","12","even","legacy","22090","NA","686","1619","22087","22194","NA","NA","696","23635","NA","23197","23197","NA","NA","Feature Shift Prototypes","0","6379","13","no","NA","no","1920","0","8"
"undefined","undefined","489.357142857","489.357142857","white","no","legacy","legacy","legacy","0","relative","undefined","NA","undefined","undefined","13","NA","0","0","13","13","NA","NA","0","13","0","13","13","0","0","Thu 31 Oct 2019 11:43:21 GMT","","yes","facialproto_short.osexp","/home/andy/svn/rmip/docs/openseslib","2","02-80.png","no","mono","no","18","no","black","no","no","1080","legacy","13","13","/home/andy/svn/rmip/docs/openseslib/subject-12.csv","legacy","Kafkaesque Koffka","3.2.7","exposure","0","6","NA","space","6","NA","472","NA","922","472","NA","2","legacy","horizontal","1024","2","48000","-16","experiment","12","even","legacy","23719","NA","686","1619","23716","23821","NA","NA","696","25298","NA","24825","24825","NA","NA","Feature Shift Prototypes","0","6851","14","no","NA","no","1920","-8","0"
"undefined","undefined","483.333333333","483.333333333","white","no","legacy","legacy","legacy","0","relative","undefined","NA","undefined","undefined","14","NA","0","0","14","14","NA","NA","0","14","0","14","14","0","0","Thu 31 Oct 2019 11:43:21 GMT","","yes","facialproto_short.osexp","/home/andy/svn/rmip/docs/openseslib","3","030-8.png","no","mono","no","18","no","black","no","no","1080","legacy","14","14","/home/andy/svn/rmip/docs/openseslib/subject-12.csv","legacy","Kafkaesque Koffka","3.2.7","exposure","0","4","NA","space","4","NA","399","NA","922","399","NA","2","legacy","vertical","1024","2","48000","-16","experiment","12","even","legacy","25385","NA","686","1619","25382","25487","NA","NA","696","26890","NA","26490","26491","NA","NA","Feature Shift Prototypes","0","7250","15","no","NA","no","1920","0","-8"
"undefined","undefined","480.875","480.875","white","no","legacy","legacy","legacy","0","relative","undefined","NA","undefined","undefined","15","NA","0","0","15","15","NA","NA","0","15","0","15","15","0","0","Thu 31 Oct 2019 11:43:21 GMT","","yes","facialproto_short.osexp","/home/andy/svn/rmip/docs/openseslib","2","02-80.png","no","mono","no","18","no","black","no","no","1080","legacy","15","15","/home/andy/svn/rmip/docs/openseslib/subject-12.csv","legacy","Kafkaesque Koffka","3.2.7","exposure","0","5","NA","space","5","NA","444","NA","922","444","NA","2","legacy","horizontal","1024","2","48000","-16","experiment","12","even","legacy","26972","NA","686","1619","26969","27075","NA","NA","696","28523","NA","28077","28078","NA","NA","Feature Shift Prototypes","0","7694","16","no","NA","no","1920","-8","0"
"undefined","undefined","478.882352941","478.882352941","white","no","legacy","legacy","legacy","0","relative","undefined","NA","undefined","undefined","16","NA","0","0","16","16","NA","NA","0","16","0","16","16","0","0","Thu 31 Oct 2019 11:43:21 GMT","","yes","facialproto_short.osexp","/home/andy/svn/rmip/docs/openseslib","4","04-80.png","no","mono","no","18","no","black","no","no","1080","legacy","16","16","/home/andy/svn/rmip/docs/openseslib/subject-12.csv","legacy","Kafkaesque Koffka","3.2.7","exposure","0","6","NA","space","6","NA","447","NA","922","447","NA","2","legacy","horizontal","1024","2","48000","-16","experiment","12","even","legacy","28616","NA","686","1619","28613","28719","NA","NA","696","30169","NA","29721","29722","NA","NA","Feature Shift Prototypes","0","8141","17","no","NA","no","1920","-8","0"
"undefined","undefined","473.833333333","473.833333333","white","no","legacy","legacy","legacy","0","relative","undefined","NA","undefined","undefined","17","NA","0","0","17","17","NA","NA","0","17","0","17","17","0","0","Thu 31 Oct 2019 11:43:21 GMT","","yes","facialproto_short.osexp","/home/andy/svn/rmip/docs/openseslib","7","070-8.png","no","mono","no","18","no","black","no","no","1080","legacy","17","17","/home/andy/svn/rmip/docs/openseslib/subject-12.csv","legacy","Kafkaesque Koffka","3.2.7","exposure","0","7","NA","space","7","NA","388","NA","922","388","NA","2","legacy","vertical","1024","2","48000","-16","experiment","12","even","legacy","30250","NA","686","1619","30247","30355","NA","NA","696","31746","NA","31357","31358","NA","NA","Feature Shift Prototypes","0","8529","18","no","NA","no","1920","0","-8"
"undefined","undefined","469.263157895","469.263157895","white","no","legacy","legacy","legacy","0","relative","undefined","NA","undefined","undefined","18","NA","0","0","18","18","NA","NA","0","18","0","18","18","0","0","Thu 31 Oct 2019 11:43:21 GMT","","yes","facialproto_short.osexp","/home/andy/svn/rmip/docs/openseslib","1","010-8.png","no","mono","no","18","no","black","no","no","1080","legacy","18","18","/home/andy/svn/rmip/docs/openseslib/subject-12.csv","legacy","Kafkaesque Koffka","3.2.7","exposure","0","4","NA","space","4","NA","387","NA","922","387","NA","2","legacy","vertical","1024","2","48000","-16","experiment","12","even","legacy","31829","NA","686","1619","31826","31931","NA","NA","696","33322","NA","32934","32934","NA","NA","Feature Shift Prototypes","0","8916","19","no","NA","no","1920","0","-8"
"undefined","undefined","468.9","468.9","white","no","legacy","legacy","legacy","0","relative","undefined","NA","undefined","undefined","19","NA","0","0","19","19","NA","NA","0","19","0","19","19","0","0","Thu 31 Oct 2019 11:43:21 GMT","","yes","facialproto_short.osexp","/home/andy/svn/rmip/docs/openseslib","4","0480.png","no","mono","no","18","no","black","no","no","1080","legacy","19","19","/home/andy/svn/rmip/docs/openseslib/subject-12.csv","legacy","Kafkaesque Koffka","3.2.7","exposure","0","5","NA","space","5","NA","462","NA","922","462","NA","2","legacy","horizontal","1024","2","48000","-16","experiment","12","even","legacy","33411","NA","686","1619","33408","33513","NA","NA","696","34979","NA","34515","34516","NA","NA","Feature Shift Prototypes","0","9378","20","no","NA","no","1920","8","0"
"undefined","undefined","467","467","white","no","legacy","legacy","legacy","0","relative","undefined","NA","undefined","undefined","20","NA","0","0","20","20","NA","NA","0","20","0","20","20","0","0","Thu 31 Oct 2019 11:43:21 GMT","","yes","facialproto_short.osexp","/home/andy/svn/rmip/docs/openseslib","5","0508.png","no","mono","no","18","no","black","no","no","1080","legacy","20","20","/home/andy/svn/rmip/docs/openseslib/subject-12.csv","legacy","Kafkaesque Koffka","3.2.7","exposure","0","7","NA","space","7","NA","429","NA","922","429","NA","2","legacy","vertical","1024","2","48000","-16","experiment","12","even","legacy","35083","NA","686","1619","35080","35185","NA","NA","696","36618","NA","36188","36189","NA","NA","Feature Shift Prototypes","0","9807","21","no","NA","no","1920","0","8"
"undefined","undefined","524.863636364","524.863636364","white","no","legacy","legacy","legacy","0","relative","undefined","NA","undefined","undefined","21","NA","0","0","21","21","NA","NA","0","21","0","21","21","0","0","Thu 31 Oct 2019 11:43:21 GMT","","yes","facialproto_short.osexp","/home/andy/svn/rmip/docs/openseslib","8","08-80.png","no","mono","no","18","no","black","no","no","1080","legacy","21","21","/home/andy/svn/rmip/docs/openseslib/subject-12.csv","legacy","Kafkaesque Koffka","3.2.7","exposure","0","4","NA","space","4","NA","1740","NA","922","1740","NA","2","legacy","horizontal","1024","2","48000","-16","experiment","12","even","legacy","36707","NA","686","1619","36704","36810","NA","NA","696","39554","NA","37813","37814","NA","NA","Feature Shift Prototypes","0","11547","22","no","NA","no","1920","-8","0"
"undefined","undefined","620.173913043","620.173913043","white","no","legacy","legacy","legacy","0","relative","undefined","NA","undefined","undefined","22","NA","0","0","22","22","NA","NA","0","22","0","22","22","0","0","Thu 31 Oct 2019 11:43:21 GMT","","yes","facialproto_short.osexp","/home/andy/svn/rmip/docs/openseslib","6","0680.png","no","mono","no","18","no","black","no","no","1080","legacy","22","22","/home/andy/svn/rmip/docs/openseslib/subject-12.csv","legacy","Kafkaesque Koffka","3.2.7","exposure","0","6","NA","space","6","NA","2717","NA","922","2717","NA","2","legacy","horizontal","1024","2","48000","-16","experiment","12","even","legacy","39636","NA","686","1619","39633","39738","NA","NA","696","43458","NA","40741","40741","NA","NA","Feature Shift Prototypes","0","14264","23","no","NA","no","1920","8","0"
"undefined","undefined","612.291666667","612.291666667","white","no","legacy","legacy","legacy","0","relative","undefined","NA","undefined","undefined","23","NA","0","0","23","23","NA","NA","0","23","0","23","23","0","0","Thu 31 Oct 2019 11:43:21 GMT","","yes","facialproto_short.osexp","/home/andy/svn/rmip/docs/openseslib","8","08-80.png","no","mono","no","18","no","black","no","no","1080","legacy","23","23","/home/andy/svn/rmip/docs/openseslib/subject-12.csv","legacy","Kafkaesque Koffka","3.2.7","exposure","0","5","NA","space","5","NA","431","NA","922","431","NA","2","legacy","horizontal","1024","2","48000","-16","experiment","12","even","legacy","43553","NA","686","1619","43550","43655","NA","NA","696","45089","NA","44657","44658","NA","NA","Feature Shift Prototypes","0","14695","24","no","NA","no","1920","-8","0"
"undefined","undefined","600.2","600.2","white","no","legacy","legacy","legacy","0","relative","undefined","NA","undefined","undefined","24","NA","0","0","24","24","NA","NA","0","24","0","24","24","0","0","Thu 31 Oct 2019 11:43:21 GMT","","yes","facialproto_short.osexp","/home/andy/svn/rmip/docs/openseslib","3","0308.png","no","mono","no","18","no","black","no","no","1080","legacy","24","24","/home/andy/svn/rmip/docs/openseslib/subject-12.csv","legacy","Kafkaesque Koffka","3.2.7","exposure","0","7","NA","space","7","NA","310","NA","922","310","NA","2","legacy","vertical","1024","2","48000","-16","experiment","12","even","legacy","45172","NA","686","1619","45169","45274","NA","NA","696","46586","NA","46276","46276","NA","NA","Feature Shift Prototypes","0","15005","25","no","NA","no","1920","0","8"
"undefined","undefined","591.769230769","591.769230769","white","no","legacy","legacy","legacy","0","relative","undefined","NA","undefined","undefined","25","NA","0","0","25","25","NA","NA","0","25","0","25","25","0","0","Thu 31 Oct 2019 11:43:21 GMT","","yes","facialproto_short.osexp","/home/andy/svn/rmip/docs/openseslib","7","0708.png","no","mono","no","18","no","black","no","no","1080","legacy","25","25","/home/andy/svn/rmip/docs/openseslib/subject-12.csv","legacy","Kafkaesque Koffka","3.2.7","exposure","0","4","NA","space","4","NA","381","NA","922","381","NA","2","legacy","vertical","1024","2","48000","-16","experiment","12","even","legacy","46667","NA","686","1619","46664","46769","NA","NA","696","48153","NA","47771","47772","NA","NA","Feature Shift Prototypes","0","15386","26","no","NA","no","1920","0","8"
"undefined","undefined","588.222222222","588.222222222","white","no","legacy","legacy","legacy","0","relative","undefined","NA","undefined","undefined","26","NA","0","0","26","26","NA","NA","0","26","0","26","26","0","0","Thu 31 Oct 2019 11:43:21 GMT","","yes","facialproto_short.osexp","/home/andy/svn/rmip/docs/openseslib","4","0480.png","no","mono","no","18","no","black","no","no","1080","legacy","26","26","/home/andy/svn/rmip/docs/openseslib/subject-12.csv","legacy","Kafkaesque Koffka","3.2.7","exposure","0","6","NA","space","6","NA","496","NA","922","496","NA","2","legacy","horizontal","1024","2","48000","-16","experiment","12","even","legacy","48235","NA","686","1619","48232","48337","NA","NA","696","49837","NA","49339","49340","NA","NA","Feature Shift Prototypes","0","15882","27","no","NA","no","1920","8","0"
"undefined","undefined","583.928571429","583.928571429","white","no","legacy","legacy","legacy","0","relative","undefined","NA","undefined","undefined","27","NA","0","0","27","27","NA","NA","0","27","0","27","27","0","0","Thu 31 Oct 2019 11:43:21 GMT","","yes","facialproto_short.osexp","/home/andy/svn/rmip/docs/openseslib","2","0280.png","no","mono","no","18","no","black","no","no","1080","legacy","27","27","/home/andy/svn/rmip/docs/openseslib/subject-12.csv","legacy","Kafkaesque Koffka","3.2.7","exposure","0","4","NA","space","4","NA","468","NA","922","468","NA","2","legacy","horizontal","1024","2","48000","-16","experiment","12","even","legacy","49932","NA","686","1619","49929","50035","NA","NA","696","51506","NA","51037","51038","NA","NA","Feature Shift Prototypes","0","16350","28","no","NA","no","1920","8","0"
"undefined","undefined","577.689655172","577.689655172","white","no","legacy","legacy","legacy","0","relative","undefined","NA","undefined","undefined","28","NA","0","0","28","28","NA","NA","0","28","0","28","28","0","0","Thu 31 Oct 2019 11:43:21 GMT","","yes","facialproto_short.osexp","/home/andy/svn/rmip/docs/openseslib","4","04-80.png","no","mono","no","18","no","black","no","no","1080","legacy","28","28","/home/andy/svn/rmip/docs/openseslib/subject-12.csv","legacy","Kafkaesque Koffka","3.2.7","exposure","0","7","NA","space","7","NA","403","NA","922","403","NA","2","legacy","horizontal","1024","2","48000","-16","experiment","12","even","legacy","51589","NA","686","1619","51586","51691","NA","NA","696","53097","NA","52694","52694","NA","NA","Feature Shift Prototypes","0","16753","29","no","NA","no","1920","-8","0"
"undefined","undefined","571.4","571.4","white","no","legacy","legacy","legacy","0","relative","undefined","NA","undefined","undefined","29","NA","0","0","29","29","NA","NA","0","29","0","29","29","0","0","Thu 31 Oct 2019 11:43:21 GMT","","yes","facialproto_short.osexp","/home/andy/svn/rmip/docs/openseslib","2","0280.png","no","mono","no","18","no","black","no","no","1080","legacy","29","29","/home/andy/svn/rmip/docs/openseslib/subject-12.csv","legacy","Kafkaesque Koffka","3.2.7","exposure","0","4","NA","space","4","NA","389","NA","922","389","NA","2","legacy","horizontal","1024","2","48000","-16","experiment","12","even","legacy","53179","NA","686","1619","53177","53282","NA","NA","696","54674","NA","54285","54285","NA","NA","Feature Shift Prototypes","0","17142","30","no","NA","no","1920","8","0"
"undefined","undefined","565.387096774","565.387096774","white","no","legacy","legacy","legacy","0","relative","undefined","NA","undefined","undefined","30","NA","0","0","30","30","NA","NA","0","30","0","30","30","0","0","Thu 31 Oct 2019 11:43:21 GMT","","yes","facialproto_short.osexp","/home/andy/svn/rmip/docs/openseslib","1","010-8.png","no","mono","no","18","no","black","no","no","1080","legacy","30","30","/home/andy/svn/rmip/docs/openseslib/subject-12.csv","legacy","Kafkaesque Koffka","3.2.7","exposure","0","7","NA","space","7","NA","385","NA","922","385","NA","2","legacy","vertical","1024","2","48000","-16","experiment","12","even","legacy","54767","NA","686","1619","54764","54869","NA","NA","696","56257","NA","55871","55872","NA","NA","Feature Shift Prototypes","0","17527","31","no","NA","no","1920","0","-8"
"undefined","undefined","563.8125","563.8125","white","no","legacy","legacy","legacy","0","relative","undefined","NA","undefined","undefined","31","NA","0","0","31","31","NA","NA","0","31","0","31","31","0","0","Thu 31 Oct 2019 11:43:21 GMT","","yes","facialproto_short.osexp","/home/andy/svn/rmip/docs/openseslib","3","030-8.png","no","mono","no","18","no","black","no","no","1080","legacy","31","31","/home/andy/svn/rmip/docs/openseslib/subject-12.csv","legacy","Kafkaesque Koffka","3.2.7","exposure","0","4","NA","space","4","NA","515","NA","922","515","NA","2","legacy","vertical","1024","2","48000","-16","experiment","12","even","legacy","56339","NA","686","1619","56336","56441","NA","NA","696","57959","NA","57443","57443","NA","NA","Feature Shift Prototypes","0","18042","32","no","NA","no","1920","0","-8"
"undefined","undefined","600.575757576","600.575757576","white","no","legacy","legacy","legacy","0","relative","undefined","undefined","undefined","undefined","32","0","0","0","31","31","0","0","0","32","0","31","31","0","0","Thu 31 Oct 2019 11:43:21 GMT","","yes","facialproto_short.osexp","/home/andy/svn/rmip/docs/openseslib","4","0400.png","no","mono","no","18","no","black","no","no","1080","legacy","0","31","/home/andy/svn/rmip/docs/openseslib/subject-12.csv","legacy","Kafkaesque Koffka","3.2.7","test","0","4","4","space","4","space","1777","1777","922","515","3567","2","legacy","horizontal","1024","2","48000","-16","experiment","12","even","legacy","61611","61608","686","1619","56336","56441","61728","61737","696","63514","NA","57443","57443","61578","58011","Feature Shift Prototypes","0","19819","33","no","prototype","no","1920","0","0"
"undefined","undefined","603.588235294","603.588235294","white","no","legacy","legacy","legacy","0","relative","undefined","undefined","undefined","undefined","33","1","0","0","31","31","1","1","0","33","0","31","31","0","0","Thu 31 Oct 2019 11:43:21 GMT","","yes","facialproto_short.osexp","/home/andy/svn/rmip/docs/openseslib","3","030-12.png","no","mono","no","18","no","black","no","no","1080","legacy","1","31","/home/andy/svn/rmip/docs/openseslib/subject-12.csv","legacy","Kafkaesque Koffka","3.2.7","test","0","6","6","space","4","space","703","703","922","515","3567","2","legacy","vertical","1024","2","48000","-16","experiment","12","even","legacy","63587","63584","686","1619","56336","56441","63689","63690","696","64393","NA","57443","57443","61578","58011","Feature Shift Prototypes","0","20522","34","no","unseen","no","1920","0","-12"
"undefined","undefined","602.8","602.8","white","no","legacy","legacy","legacy","0","relative","undefined","undefined","undefined","undefined","34","2","0","0","31","31","2","2","0","34","0","31","31","0","0","Thu 31 Oct 2019 11:43:21 GMT","","yes","facialproto_short.osexp","/home/andy/svn/rmip/docs/openseslib","6","0600.png","no","mono","no","18","no","black","no","no","1080","legacy","2","31","/home/andy/svn/rmip/docs/openseslib/subject-12.csv","legacy","Kafkaesque Koffka","3.2.7","test","0","3","3","space","4","space","576","576","922","515","3567","2","legacy","horizontal","1024","2","48000","-16","experiment","12","even","legacy","64467","64464","686","1619","56336","56441","64569","64569","696","65145","NA","57443","57443","61578","58011","Feature Shift Prototypes","0","21098","35","no","prototype","no","1920","0","0"
"undefined","undefined","603.027777778","603.027777778","white","no","legacy","legacy","legacy","0","relative","undefined","undefined","undefined","undefined","35","3","0","0","31","31","3","3","0","35","0","31","31","0","0","Thu 31 Oct 2019 11:43:21 GMT","","yes","facialproto_short.osexp","/home/andy/svn/rmip/docs/openseslib","1","01012.png","no","mono","no","18","no","black","no","no","1080","legacy","3","31","/home/andy/svn/rmip/docs/openseslib/subject-12.csv","legacy","Kafkaesque Koffka","3.2.7","test","0","6","6","space","4","space","611","611","922","515","3567","2","legacy","vertical","1024","2","48000","-16","experiment","12","even","legacy","65218","65215","686","1619","56336","56441","65321","65321","696","65935","NA","57443","57443","61578","58011","Feature Shift Prototypes","0","21709","36","no","unseen","no","1920","0","12"
"undefined","undefined","601.324324324","601.324324324","white","no","legacy","legacy","legacy","0","relative","undefined","undefined","undefined","undefined","36","4","0","0","31","31","4","4","0","36","0","31","31","0","0","Thu 31 Oct 2019 11:43:21 GMT","","yes","facialproto_short.osexp","/home/andy/svn/rmip/docs/openseslib","2","02120.png","no","mono","no","18","no","black","no","no","1080","legacy","4","31","/home/andy/svn/rmip/docs/openseslib/subject-12.csv","legacy","Kafkaesque Koffka","3.2.7","test","0","5","5","space","4","space","540","540","922","515","3567","2","legacy","horizontal","1024","2","48000","-16","experiment","12","even","legacy","66008","66005","686","1619","56336","56441","66110","66110","696","66650","NA","57443","57443","61578","58011","Feature Shift Prototypes","0","22249","37","no","unseen","no","1920","12","0"
"undefined","undefined","600.184210526","600.184210526","white","no","legacy","legacy","legacy","0","relative","undefined","undefined","undefined","undefined","37","5","0","0","31","31","5","5","0","37","0","31","31","0","0","Thu 31 Oct 2019 11:43:21 GMT","","yes","facialproto_short.osexp","/home/andy/svn/rmip/docs/openseslib","1","010-8.png","no","mono","no","18","no","black","no","no","1080","legacy","5","31","/home/andy/svn/rmip/docs/openseslib/subject-12.csv","legacy","Kafkaesque Koffka","3.2.7","test","0","3","3","space","4","space","558","558","922","515","3567","2","legacy","vertical","1024","2","48000","-16","experiment","12","even","legacy","66723","66720","686","1619","56336","56441","66826","66826","696","67385","NA","57443","57443","61578","58011","Feature Shift Prototypes","0","22807","38","no","seen","no","1920","0","-8"
"undefined","undefined","598.307692308","598.307692308","white","no","legacy","legacy","legacy","0","relative","undefined","undefined","undefined","undefined","38","6","0","0","31","31","6","6","0","38","0","31","31","0","0","Thu 31 Oct 2019 11:43:21 GMT","","yes","facialproto_short.osexp","/home/andy/svn/rmip/docs/openseslib","7","070-12.png","no","mono","no","18","no","black","no","no","1080","legacy","6","31","/home/andy/svn/rmip/docs/openseslib/subject-12.csv","legacy","Kafkaesque Koffka","3.2.7","test","0","6","6","space","4","space","527","527","922","515","3567","2","legacy","vertical","1024","2","48000","-16","experiment","12","even","legacy","67468","67465","686","1619","56336","56441","67570","67570","696","68097","NA","57443","57443","61578","58011","Feature Shift Prototypes","0","23334","39","no","unseen","no","1920","0","-12"
"undefined","undefined","598.175","598.175","white","no","legacy","legacy","legacy","0","relative","undefined","undefined","undefined","undefined","39","7","0","0","31","31","7","7","0","39","0","31","31","0","0","Thu 31 Oct 2019 11:43:21 GMT","","yes","facialproto_short.osexp","/home/andy/svn/rmip/docs/openseslib","7","0700.png","no","mono","no","18","no","black","no","no","1080","legacy","7","31","/home/andy/svn/rmip/docs/openseslib/subject-12.csv","legacy","Kafkaesque Koffka","3.2.7","test","0","7","7","space","4","space","593","593","922","515","3567","2","legacy","vertical","1024","2","48000","-16","experiment","12","even","legacy","68177","68174","686","1619","56336","56441","68280","68280","696","68874","NA","57443","57443","61578","58011","Feature Shift Prototypes","0","23927","40","no","prototype","no","1920","0","0"
"undefined","undefined","596.487804878","596.487804878","white","no","legacy","legacy","legacy","0","relative","undefined","undefined","undefined","undefined","40","8","0","0","31","31","8","8","0","40","0","31","31","0","0","Thu 31 Oct 2019 11:43:21 GMT","","yes","facialproto_short.osexp","/home/andy/svn/rmip/docs/openseslib","7","0708.png","no","mono","no","18","no","black","no","no","1080","legacy","8","31","/home/andy/svn/rmip/docs/openseslib/subject-12.csv","legacy","Kafkaesque Koffka","3.2.7","test","0","5","5","space","4","space","529","529","922","515","3567","2","legacy","vertical","1024","2","48000","-16","experiment","12","even","legacy","68946","68943","686","1619","56336","56441","69048","69049","696","69594","NA","57443","57443","61578","58011","Feature Shift Prototypes","0","24456","41","no","seen","no","1920","0","8"
"undefined","undefined","594.976190476","594.976190476","white","no","legacy","legacy","legacy","0","relative","undefined","undefined","undefined","undefined","41","9","0","0","31","31","9","9","0","41","0","31","31","0","0","Thu 31 Oct 2019 11:43:21 GMT","","yes","facialproto_short.osexp","/home/andy/svn/rmip/docs/openseslib","2","02-80.png","no","mono","no","18","no","black","no","no","1080","legacy","9","31","/home/andy/svn/rmip/docs/openseslib/subject-12.csv","legacy","Kafkaesque Koffka","3.2.7","test","0","4","4","space","4","space","533","533","922","515","3567","2","legacy","horizontal","1024","2","48000","-16","experiment","12","even","legacy","69669","69666","686","1619","56336","56441","69771","69772","696","70305","NA","57443","57443","61578","58011","Feature Shift Prototypes","0","24989","42","no","seen","no","1920","-8","0"
"undefined","undefined","594.186046512","594.186046512","white","no","legacy","legacy","legacy","0","relative","undefined","undefined","undefined","undefined","42","10","0","0","31","31","10","10","0","42","0","31","31","0","0","Thu 31 Oct 2019 11:43:21 GMT","","yes","facialproto_short.osexp","/home/andy/svn/rmip/docs/openseslib","8","08-120.png","no","mono","no","18","no","black","no","no","1080","legacy","10","31","/home/andy/svn/rmip/docs/openseslib/subject-12.csv","legacy","Kafkaesque Koffka","3.2.7","test","0","3","3","space","4","space","561","561","922","515","3567","2","legacy","horizontal","1024","2","48000","-16","experiment","12","even","legacy","70377","70374","686","1619","56336","56441","70479","70479","696","71041","NA","57443","57443","61578","58011","Feature Shift Prototypes","0","25550","43","no","unseen","no","1920","-12","0"
"undefined","undefined","592.545454545","592.545454545","white","no","legacy","legacy","legacy","0","relative","undefined","undefined","undefined","undefined","43","11","0","0","31","31","11","11","0","43","0","31","31","0","0","Thu 31 Oct 2019 11:43:21 GMT","","yes","facialproto_short.osexp","/home/andy/svn/rmip/docs/openseslib","5","050-8.png","no","mono","no","18","no","black","no","no","1080","legacy","11","31","/home/andy/svn/rmip/docs/openseslib/subject-12.csv","legacy","Kafkaesque Koffka","3.2.7","test","0","6","6","space","4","space","522","522","922","515","3567","2","legacy","vertical","1024","2","48000","-16","experiment","12","even","legacy","71121","71118","686","1619","56336","56441","71223","71224","696","71746","NA","57443","57443","61578","58011","Feature Shift Prototypes","0","26072","44","no","seen","no","1920","0","-8"
"undefined","undefined","591.955555556","591.955555556","white","no","legacy","legacy","legacy","0","relative","undefined","undefined","undefined","undefined","44","12","0","0","31","31","12","12","0","44","0","31","31","0","0","Thu 31 Oct 2019 11:43:21 GMT","","yes","facialproto_short.osexp","/home/andy/svn/rmip/docs/openseslib","8","0800.png","no","mono","no","18","no","black","no","no","1080","legacy","12","31","/home/andy/svn/rmip/docs/openseslib/subject-12.csv","legacy","Kafkaesque Koffka","3.2.7","test","0","5","5","space","4","space","566","566","922","515","3567","2","legacy","horizontal","1024","2","48000","-16","experiment","12","even","legacy","71820","71817","686","1619","56336","56441","71922","71923","696","72490","NA","57443","57443","61578","58011","Feature Shift Prototypes","0","26638","45","no","prototype","no","1920","0","0"
"undefined","undefined","589.826086957","589.826086957","white","no","legacy","legacy","legacy","0","relative","undefined","undefined","undefined","undefined","45","13","0","0","31","31","13","13","0","45","0","31","31","0","0","Thu 31 Oct 2019 11:43:21 GMT","","yes","facialproto_short.osexp","/home/andy/svn/rmip/docs/openseslib","2","0200.png","no","mono","no","18","no","black","no","no","1080","legacy","13","31","/home/andy/svn/rmip/docs/openseslib/subject-12.csv","legacy","Kafkaesque Koffka","3.2.7","test","0","7","7","space","4","space","494","494","922","515","3567","2","legacy","horizontal","1024","2","48000","-16","experiment","12","even","legacy","72572","72569","686","1619","56336","56441","72675","72675","696","73169","NA","57443","57443","61578","58011","Feature Shift Prototypes","0","27132","46","no","prototype","no","1920","0","0"
"undefined","undefined","590.404255319","590.404255319","white","no","legacy","legacy","legacy","0","relative","undefined","undefined","undefined","undefined","46","14","0","0","31","31","14","14","0","46","0","31","31","0","0","Thu 31 Oct 2019 11:43:21 GMT","","yes","facialproto_short.osexp","/home/andy/svn/rmip/docs/openseslib","4","04-120.png","no","mono","no","18","no","black","no","no","1080","legacy","14","31","/home/andy/svn/rmip/docs/openseslib/subject-12.csv","legacy","Kafkaesque Koffka","3.2.7","test","0","4","4","space","4","space","617","617","922","515","3567","2","legacy","horizontal","1024","2","48000","-16","experiment","12","even","legacy","73242","73239","686","1619","56336","56441","73345","73345","696","73962","NA","57443","57443","61578","58011","Feature Shift Prototypes","0","27749","47","no","unseen","no","1920","-12","0"
"undefined","undefined","589.625","589.625","white","no","legacy","legacy","legacy","0","relative","undefined","undefined","undefined","undefined","47","15","0","0","31","31","15","15","0","47","0","31","31","0","0","Thu 31 Oct 2019 11:43:21 GMT","","yes","facialproto_short.osexp","/home/andy/svn/rmip/docs/openseslib","3","0308.png","no","mono","no","18","no","black","no","no","1080","legacy","15","31","/home/andy/svn/rmip/docs/openseslib/subject-12.csv","legacy","Kafkaesque Koffka","3.2.7","test","0","5","5","space","4","space","553","553","922","515","3567","2","legacy","vertical","1024","2","48000","-16","experiment","12","even","legacy","74034","74031","686","1619","56336","56441","74136","74137","696","74690","NA","57443","57443","61578","58011","Feature Shift Prototypes","0","28302","48","no","seen","no","1920","0","8"
"undefined","undefined","587.918367347","587.918367347","white","no","legacy","legacy","legacy","0","relative","undefined","undefined","undefined","undefined","48","16","0","0","31","31","16","16","0","48","0","31","31","0","0","Thu 31 Oct 2019 11:43:21 GMT","","yes","facialproto_short.osexp","/home/andy/svn/rmip/docs/openseslib","4","0480.png","no","mono","no","18","no","black","no","no","1080","legacy","16","31","/home/andy/svn/rmip/docs/openseslib/subject-12.csv","legacy","Kafkaesque Koffka","3.2.7","test","0","6","6","space","4","space","506","506","922","515","3567","2","legacy","horizontal","1024","2","48000","-16","experiment","12","even","legacy","74768","74765","686","1619","56336","56441","74870","74871","696","75377","NA","57443","57443","61578","58011","Feature Shift Prototypes","0","28808","49","no","seen","no","1920","8","0"
"undefined","undefined","586.74","586.74","white","no","legacy","legacy","legacy","0","relative","undefined","undefined","undefined","undefined","49","17","0","0","31","31","17","17","0","49","0","31","31","0","0","Thu 31 Oct 2019 11:43:21 GMT","","yes","facialproto_short.osexp","/home/andy/svn/rmip/docs/openseslib","5","0500.png","no","mono","no","18","no","black","no","no","1080","legacy","17","31","/home/andy/svn/rmip/docs/openseslib/subject-12.csv","legacy","Kafkaesque Koffka","3.2.7","test","0","7","7","space","4","space","529","529","922","515","3567","2","legacy","vertical","1024","2","48000","-16","experiment","12","even","legacy","75450","75447","686","1619","56336","56441","75552","75552","696","76082","NA","57443","57443","61578","58011","Feature Shift Prototypes","0","29337","50","no","prototype","no","1920","0","0"
"undefined","undefined","584.647058824","584.647058824","white","no","legacy","legacy","legacy","0","relative","undefined","undefined","undefined","undefined","50","18","0","0","31","31","18","18","0","50","0","31","31","0","0","Thu 31 Oct 2019 11:43:21 GMT","","yes","facialproto_short.osexp","/home/andy/svn/rmip/docs/openseslib","8","0880.png","no","mono","no","18","no","black","no","no","1080","legacy","18","31","/home/andy/svn/rmip/docs/openseslib/subject-12.csv","legacy","Kafkaesque Koffka","3.2.7","test","0","4","4","space","4","space","480","480","922","515","3567","2","legacy","horizontal","1024","2","48000","-16","experiment","12","even","legacy","76162","76159","686","1619","56336","56441","76264","76265","696","76746","NA","57443","57443","61578","58011","Feature Shift Prototypes","0","29817","51","no","seen","no","1920","8","0"
"undefined","undefined","582.980769231","582.980769231","white","no","legacy","legacy","legacy","0","relative","undefined","undefined","undefined","undefined","51","19","0","0","31","31","19","19","0","51","0","31","31","0","0","Thu 31 Oct 2019 11:43:21 GMT","","yes","facialproto_short.osexp","/home/andy/svn/rmip/docs/openseslib","6","06-80.png","no","mono","no","18","no","black","no","no","1080","legacy","19","31","/home/andy/svn/rmip/docs/openseslib/subject-12.csv","legacy","Kafkaesque Koffka","3.2.7","test","0","5","5","space","4","space","498","498","922","515","3567","2","legacy","horizontal","1024","2","48000","-16","experiment","12","even","legacy","76831","76828","686","1619","56336","56441","76935","76935","696","77434","NA","57443","57443","61578","58011","Feature Shift Prototypes","0","30315","52","no","seen","no","1920","-8","0"
"undefined","undefined","582.075471698","582.075471698","white","no","legacy","legacy","legacy","0","relative","undefined","undefined","undefined","undefined","52","20","0","0","31","31","20","20","0","52","0","31","31","0","0","Thu 31 Oct 2019 11:43:21 GMT","","yes","facialproto_short.osexp","/home/andy/svn/rmip/docs/openseslib","5","05012.png","no","mono","no","18","no","black","no","no","1080","legacy","20","31","/home/andy/svn/rmip/docs/openseslib/subject-12.csv","legacy","Kafkaesque Koffka","3.2.7","test","0","6","6","space","4","space","535","535","922","515","3567","2","legacy","vertical","1024","2","48000","-16","experiment","12","even","legacy","77515","77512","686","1619","56336","56441","77617","77618","696","78153","NA","57443","57443","61578","58011","Feature Shift Prototypes","0","30850","53","no","unseen","no","1920","0","12"
"undefined","undefined","580.648148148","580.648148148","white","no","legacy","legacy","legacy","0","relative","undefined","undefined","undefined","undefined","53","21","0","0","31","31","21","21","0","53","0","31","31","0","0","Thu 31 Oct 2019 11:43:21 GMT","","yes","facialproto_short.osexp","/home/andy/svn/rmip/docs/openseslib","1","0100.png","no","mono","no","18","no","black","no","no","1080","legacy","21","31","/home/andy/svn/rmip/docs/openseslib/subject-12.csv","legacy","Kafkaesque Koffka","3.2.7","test","0","7","7","space","4","space","505","505","922","515","3567","2","legacy","vertical","1024","2","48000","-16","experiment","12","even","legacy","78226","78223","686","1619","56336","56441","78328","78329","696","78834","NA","57443","57443","61578","58011","Feature Shift Prototypes","0","31355","54","no","prototype","no","1920","0","0"
"undefined","undefined","579.418181818","579.418181818","white","no","legacy","legacy","legacy","0","relative","undefined","undefined","undefined","undefined","54","22","0","0","31","31","22","22","0","54","0","31","31","0","0","Thu 31 Oct 2019 11:43:21 GMT","","yes","facialproto_short.osexp","/home/andy/svn/rmip/docs/openseslib","3","0300.png","no","mono","no","18","no","black","no","no","1080","legacy","22","31","/home/andy/svn/rmip/docs/openseslib/subject-12.csv","legacy","Kafkaesque Koffka","3.2.7","test","0","4","4","space","4","space","513","513","922","515","3567","2","legacy","vertical","1024","2","48000","-16","experiment","12","even","legacy","78907","78904","686","1619","56336","56441","79009","79009","696","79522","NA","57443","57443","61578","58011","Feature Shift Prototypes","0","31868","55","no","prototype","no","1920","0","0"
"undefined","undefined","577.357142857","577.357142857","white","no","legacy","legacy","legacy","0","relative","undefined","undefined","undefined","undefined","55","23","0","0","31","31","23","23","0","55","0","31","31","0","0","Thu 31 Oct 2019 11:43:21 GMT","","yes","facialproto_short.osexp","/home/andy/svn/rmip/docs/openseslib","6","06120.png","no","mono","no","18","no","black","no","no","1080","legacy","23","31","/home/andy/svn/rmip/docs/openseslib/subject-12.csv","legacy","Kafkaesque Koffka","3.2.7","test","0","5","5","space","4","space","464","464","922","515","3567","2","legacy","horizontal","1024","2","48000","-16","experiment","12","even","legacy","79594","79591","686","1619","56336","56441","79696","79697","696","80161","NA","57443","57443","61578","58011","Feature Shift Prototypes","0","32332","56","no","unseen","no","1920","12","0"
