"acc","accuracy","average_response_time","avg_rt","background","bidi","canvas_backend","clock_backend","color_backend","compensation","coordinates","correct","correct_facetest_response","correct_instructions","correct_sexrating_response","count_blank100","count_exemplarsequence","count_experiment","count_exposure","count_exposuresequence","count_faceexpose","count_facetest","count_facetest_response","count_instructions","count_logger","count_notes","count_sexrating","count_sexrating_response","count_test","count_testinstructions","datetime","description","disable_garbage_collection","experiment_file","experiment_path","faceno","fname","font_bold","font_family","font_italic","font_size","font_underline","foreground","form_clicks","fullscreen","height","keyboard_backend","live_row","live_row_exposure","logfile","mouse_backend","opensesame_codename","opensesame_version","phase","repeat_cycle","response","response_facetest_response","response_instructions","response_sexrating_response","response_testinstructions","response_time","response_time_facetest_response","response_time_instructions","response_time_sexrating_response","response_time_testinstructions","round_decimals","sampler_backend","shifttype","sound_buf_size","sound_channels","sound_freq","sound_sample_size","start","subject_nr","subject_parity","synth_backend","time_blank100","time_exemplarsequence","time_experiment","time_exposure","time_exposuresequence","time_faceexpose","time_facetest","time_facetest_response","time_instructions","time_logger","time_notes","time_sexrating","time_sexrating_response","time_test","time_testinstructions","title","total_correct","total_response_time","total_responses","transparent_variables","type","uniform_coordinates","width","xshift","yshift"
"undefined","undefined","652","652","white","no","legacy","legacy","legacy","0","relative","undefined","NA","undefined","undefined","0","NA","0","0","0","0","NA","NA","0","0","0","0","0","0","0","Thu 31 Oct 2019 11:45:00 GMT","","yes","facialproto_short.osexp","/home/andy/svn/rmip/docs/openseslib","1","010-8.png","no","mono","no","18","no","black","no","no","1080","legacy","0","0","/home/andy/svn/rmip/docs/openseslib/subject-13.csv","legacy","Kafkaesque Koffka","3.2.7","exposure","0","5","NA","space","5","NA","652","NA","1401","652","NA","2","legacy","vertical","1024","2","48000","-16","experiment","13","odd","legacy","2113","NA","652","2060","2110","2215","NA","NA","659","3870","NA","3217","3218","NA","NA","Feature Shift Prototypes","0","652","1","no","NA","no","1920","0","-8"
"undefined","undefined","327","327","white","no","legacy","legacy","legacy","0","relative","undefined","NA","undefined","undefined","1","NA","0","0","1","1","NA","NA","0","1","0","1","1","0","0","Thu 31 Oct 2019 11:45:00 GMT","","yes","facialproto_short.osexp","/home/andy/svn/rmip/docs/openseslib","8","0880.png","no","mono","no","18","no","black","no","no","1080","legacy","1","1","/home/andy/svn/rmip/docs/openseslib/subject-13.csv","legacy","Kafkaesque Koffka","3.2.7","exposure","0","3","NA","space","3","NA","2","NA","1401","2","NA","2","legacy","horizontal","1024","2","48000","-16","experiment","13","odd","legacy","4010","NA","652","2060","4007","4113","NA","NA","659","5119","NA","5115","5116","NA","NA","Feature Shift Prototypes","0","654","2","no","NA","no","1920","8","0"
"undefined","undefined","218.666666667","218.666666667","white","no","legacy","legacy","legacy","0","relative","undefined","NA","undefined","undefined","2","NA","0","0","2","2","NA","NA","0","2","0","2","2","0","0","Thu 31 Oct 2019 11:45:00 GMT","","yes","facialproto_short.osexp","/home/andy/svn/rmip/docs/openseslib","2","02-80.png","no","mono","no","18","no","black","no","no","1080","legacy","2","2","/home/andy/svn/rmip/docs/openseslib/subject-13.csv","legacy","Kafkaesque Koffka","3.2.7","exposure","0","4","NA","space","4","NA","2","NA","1401","2","NA","2","legacy","horizontal","1024","2","48000","-16","experiment","13","odd","legacy","5213","NA","652","2060","5210","5315","NA","NA","659","6321","NA","6318","6319","NA","NA","Feature Shift Prototypes","0","656","3","no","NA","no","1920","-8","0"
"undefined","undefined","297.5","297.5","white","no","legacy","legacy","legacy","0","relative","undefined","NA","undefined","undefined","3","NA","0","0","3","3","NA","NA","0","3","0","3","3","0","0","Thu 31 Oct 2019 11:45:00 GMT","","yes","facialproto_short.osexp","/home/andy/svn/rmip/docs/openseslib","6","0680.png","no","mono","no","18","no","black","no","no","1080","legacy","3","3","/home/andy/svn/rmip/docs/openseslib/subject-13.csv","legacy","Kafkaesque Koffka","3.2.7","exposure","0","5","NA","space","5","NA","534","NA","1401","534","NA","2","legacy","horizontal","1024","2","48000","-16","experiment","13","odd","legacy","6412","NA","652","2060","6409","6514","NA","NA","659","8052","NA","7518","7518","NA","NA","Feature Shift Prototypes","0","1190","4","no","NA","no","1920","8","0"
"undefined","undefined","365.4","365.4","white","no","legacy","legacy","legacy","0","relative","undefined","NA","undefined","undefined","4","NA","0","0","4","4","NA","NA","0","4","0","4","4","0","0","Thu 31 Oct 2019 11:45:00 GMT","","yes","facialproto_short.osexp","/home/andy/svn/rmip/docs/openseslib","3","0308.png","no","mono","no","18","no","black","no","no","1080","legacy","4","4","/home/andy/svn/rmip/docs/openseslib/subject-13.csv","legacy","Kafkaesque Koffka","3.2.7","exposure","0","3","NA","space","3","NA","637","NA","1401","637","NA","2","legacy","vertical","1024","2","48000","-16","experiment","13","odd","legacy","8134","NA","652","2060","8131","8236","NA","NA","659","9877","NA","9239","9240","NA","NA","Feature Shift Prototypes","0","1827","5","no","NA","no","1920","0","8"
"undefined","undefined","392.666666667","392.666666667","white","no","legacy","legacy","legacy","0","relative","undefined","NA","undefined","undefined","5","NA","0","0","5","5","NA","NA","0","5","0","5","5","0","0","Thu 31 Oct 2019 11:45:00 GMT","","yes","facialproto_short.osexp","/home/andy/svn/rmip/docs/openseslib","7","0708.png","no","mono","no","18","no","black","no","no","1080","legacy","5","5","/home/andy/svn/rmip/docs/openseslib/subject-13.csv","legacy","Kafkaesque Koffka","3.2.7","exposure","0","5","NA","space","5","NA","529","NA","1401","529","NA","2","legacy","vertical","1024","2","48000","-16","experiment","13","odd","legacy","9979","NA","652","2060","9976","10081","NA","NA","659","11613","NA","11084","11084","NA","NA","Feature Shift Prototypes","0","2356","6","no","NA","no","1920","0","8"
"undefined","undefined","411.142857143","411.142857143","white","no","legacy","legacy","legacy","0","relative","undefined","NA","undefined","undefined","6","NA","0","0","6","6","NA","NA","0","6","0","6","6","0","0","Thu 31 Oct 2019 11:45:00 GMT","","yes","facialproto_short.osexp","/home/andy/svn/rmip/docs/openseslib","4","0480.png","no","mono","no","18","no","black","no","no","1080","legacy","6","6","/home/andy/svn/rmip/docs/openseslib/subject-13.csv","legacy","Kafkaesque Koffka","3.2.7","exposure","0","4","NA","space","4","NA","522","NA","1401","522","NA","2","legacy","horizontal","1024","2","48000","-16","experiment","13","odd","legacy","11695","NA","652","2060","11692","11797","NA","NA","659","13322","NA","12799","12800","NA","NA","Feature Shift Prototypes","0","2878","7","no","NA","no","1920","8","0"
"undefined","undefined","360","360","white","no","legacy","legacy","legacy","0","relative","undefined","NA","undefined","undefined","7","NA","0","0","7","7","NA","NA","0","7","0","7","7","0","0","Thu 31 Oct 2019 11:45:00 GMT","","yes","facialproto_short.osexp","/home/andy/svn/rmip/docs/openseslib","6","06-80.png","no","mono","no","18","no","black","no","no","1080","legacy","7","7","/home/andy/svn/rmip/docs/openseslib/subject-13.csv","legacy","Kafkaesque Koffka","3.2.7","exposure","0","3","NA","space","3","NA","2","NA","1401","2","NA","2","legacy","horizontal","1024","2","48000","-16","experiment","13","odd","legacy","13411","NA","652","2060","13408","13515","NA","NA","659","14520","NA","14517","14518","NA","NA","Feature Shift Prototypes","0","2880","8","no","NA","no","1920","-8","0"
"undefined","undefined","371.777777778","371.777777778","white","no","legacy","legacy","legacy","0","relative","undefined","NA","undefined","undefined","8","NA","0","0","8","8","NA","NA","0","8","0","8","8","0","0","Thu 31 Oct 2019 11:45:00 GMT","","yes","facialproto_short.osexp","/home/andy/svn/rmip/docs/openseslib","2","02-80.png","no","mono","no","18","no","black","no","no","1080","legacy","8","8","/home/andy/svn/rmip/docs/openseslib/subject-13.csv","legacy","Kafkaesque Koffka","3.2.7","exposure","0","5","NA","space","5","NA","466","NA","1401","466","NA","2","legacy","horizontal","1024","2","48000","-16","experiment","13","odd","legacy","14610","NA","652","2060","14607","14712","NA","NA","659","16181","NA","15714","15714","NA","NA","Feature Shift Prototypes","0","3346","9","no","NA","no","1920","-8","0"
"undefined","undefined","557.1","557.1","white","no","legacy","legacy","legacy","0","relative","undefined","NA","undefined","undefined","9","NA","0","0","9","9","NA","NA","0","9","0","9","9","0","0","Thu 31 Oct 2019 11:45:00 GMT","","yes","facialproto_short.osexp","/home/andy/svn/rmip/docs/openseslib","6","06-80.png","no","mono","no","18","no","black","no","no","1080","legacy","9","9","/home/andy/svn/rmip/docs/openseslib/subject-13.csv","legacy","Kafkaesque Koffka","3.2.7","exposure","0","3","NA","space","3","NA","2225","NA","1401","2225","NA","2","legacy","horizontal","1024","2","48000","-16","experiment","13","odd","legacy","16300","NA","652","2060","16297","16403","NA","NA","659","19631","NA","17405","17406","NA","NA","Feature Shift Prototypes","0","5571","10","no","NA","no","1920","-8","0"
"undefined","undefined","615","615","white","no","legacy","legacy","legacy","0","relative","undefined","NA","undefined","undefined","10","NA","0","0","10","10","NA","NA","0","10","0","10","10","0","0","Thu 31 Oct 2019 11:45:00 GMT","","yes","facialproto_short.osexp","/home/andy/svn/rmip/docs/openseslib","5","0508.png","no","mono","no","18","no","black","no","no","1080","legacy","10","10","/home/andy/svn/rmip/docs/openseslib/subject-13.csv","legacy","Kafkaesque Koffka","3.2.7","exposure","0","5","NA","space","5","NA","1194","NA","1401","1194","NA","2","legacy","vertical","1024","2","48000","-16","experiment","13","odd","legacy","19714","NA","652","2060","19711","19816","NA","NA","659","22012","NA","20818","20818","NA","NA","Feature Shift Prototypes","0","6765","11","no","NA","no","1920","0","8"
"undefined","undefined","637.5","637.5","white","no","legacy","legacy","legacy","0","relative","undefined","NA","undefined","undefined","11","NA","0","0","11","11","NA","NA","0","11","0","11","11","0","0","Thu 31 Oct 2019 11:45:00 GMT","","yes","facialproto_short.osexp","/home/andy/svn/rmip/docs/openseslib","7","070-8.png","no","mono","no","18","no","black","no","no","1080","legacy","11","11","/home/andy/svn/rmip/docs/openseslib/subject-13.csv","legacy","Kafkaesque Koffka","3.2.7","exposure","0","6","NA","space","6","NA","885","NA","1401","885","NA","2","legacy","vertical","1024","2","48000","-16","experiment","13","odd","legacy","22093","NA","652","2060","22090","22195","NA","NA","659","24084","NA","23198","23199","NA","NA","Feature Shift Prototypes","0","7650","12","no","NA","no","1920","0","-8"
"undefined","undefined","629.769230769","629.769230769","white","no","legacy","legacy","legacy","0","relative","undefined","NA","undefined","undefined","12","NA","0","0","12","12","NA","NA","0","12","0","12","12","0","0","Thu 31 Oct 2019 11:45:00 GMT","","yes","facialproto_short.osexp","/home/andy/svn/rmip/docs/openseslib","4","0480.png","no","mono","no","18","no","black","no","no","1080","legacy","12","12","/home/andy/svn/rmip/docs/openseslib/subject-13.csv","legacy","Kafkaesque Koffka","3.2.7","exposure","0","7","NA","space","7","NA","537","NA","1401","537","NA","2","legacy","horizontal","1024","2","48000","-16","experiment","13","odd","legacy","24175","NA","652","2060","24172","24277","NA","NA","659","25818","NA","25280","25280","NA","NA","Feature Shift Prototypes","0","8187","13","no","NA","no","1920","8","0"
"undefined","undefined","624.285714286","624.285714286","white","no","legacy","legacy","legacy","0","relative","undefined","NA","undefined","undefined","13","NA","0","0","13","13","NA","NA","0","13","0","13","13","0","0","Thu 31 Oct 2019 11:45:00 GMT","","yes","facialproto_short.osexp","/home/andy/svn/rmip/docs/openseslib","3","0308.png","no","mono","no","18","no","black","no","no","1080","legacy","13","13","/home/andy/svn/rmip/docs/openseslib/subject-13.csv","legacy","Kafkaesque Koffka","3.2.7","exposure","0","4","NA","space","4","NA","553","NA","1401","553","NA","2","legacy","vertical","1024","2","48000","-16","experiment","13","odd","legacy","25899","NA","652","2060","25897","26001","NA","NA","659","27557","NA","27003","27004","NA","NA","Feature Shift Prototypes","0","8740","14","no","NA","no","1920","0","8"
"undefined","undefined","618.133333333","618.133333333","white","no","legacy","legacy","legacy","0","relative","undefined","NA","undefined","undefined","14","NA","0","0","14","14","NA","NA","0","14","0","14","14","0","0","Thu 31 Oct 2019 11:45:00 GMT","","yes","facialproto_short.osexp","/home/andy/svn/rmip/docs/openseslib","1","010-8.png","no","mono","no","18","no","black","no","no","1080","legacy","14","14","/home/andy/svn/rmip/docs/openseslib/subject-13.csv","legacy","Kafkaesque Koffka","3.2.7","exposure","0","5","NA","space","5","NA","532","NA","1401","532","NA","2","legacy","vertical","1024","2","48000","-16","experiment","13","odd","legacy","27638","NA","652","2060","27635","27741","NA","NA","659","29277","NA","28743","28744","NA","NA","Feature Shift Prototypes","0","9272","15","no","NA","no","1920","0","-8"
"undefined","undefined","627.1875","627.1875","white","no","legacy","legacy","legacy","0","relative","undefined","NA","undefined","undefined","15","NA","0","0","15","15","NA","NA","0","15","0","15","15","0","0","Thu 31 Oct 2019 11:45:00 GMT","","yes","facialproto_short.osexp","/home/andy/svn/rmip/docs/openseslib","8","08-80.png","no","mono","no","18","no","black","no","no","1080","legacy","15","15","/home/andy/svn/rmip/docs/openseslib/subject-13.csv","legacy","Kafkaesque Koffka","3.2.7","exposure","0","6","NA","space","6","NA","763","NA","1401","763","NA","2","legacy","horizontal","1024","2","48000","-16","experiment","13","odd","legacy","29367","NA","652","2060","29365","29470","NA","NA","659","31236","NA","30473","30473","NA","NA","Feature Shift Prototypes","0","10035","16","no","NA","no","1920","-8","0"
"undefined","undefined","655.647058824","655.647058824","white","no","legacy","legacy","legacy","0","relative","undefined","NA","undefined","undefined","16","NA","0","0","16","16","NA","NA","0","16","0","16","16","0","0","Thu 31 Oct 2019 11:45:00 GMT","","yes","facialproto_short.osexp","/home/andy/svn/rmip/docs/openseslib","4","04-80.png","no","mono","no","18","no","black","no","no","1080","legacy","16","16","/home/andy/svn/rmip/docs/openseslib/subject-13.csv","legacy","Kafkaesque Koffka","3.2.7","exposure","0","3","NA","space","3","NA","1111","NA","1401","1111","NA","2","legacy","horizontal","1024","2","48000","-16","experiment","13","odd","legacy","31341","NA","652","2060","31338","31443","NA","NA","659","33557","NA","32445","32446","NA","NA","Feature Shift Prototypes","0","11146","17","no","NA","no","1920","-8","0"
"undefined","undefined","693.444444444","693.444444444","white","no","legacy","legacy","legacy","0","relative","undefined","NA","undefined","undefined","17","NA","0","0","17","17","NA","NA","0","17","0","17","17","0","0","Thu 31 Oct 2019 11:45:00 GMT","","yes","facialproto_short.osexp","/home/andy/svn/rmip/docs/openseslib","4","04-80.png","no","mono","no","18","no","black","no","no","1080","legacy","17","17","/home/andy/svn/rmip/docs/openseslib/subject-13.csv","legacy","Kafkaesque Koffka","3.2.7","exposure","0","6","NA","space","6","NA","1336","NA","1401","1336","NA","2","legacy","horizontal","1024","2","48000","-16","experiment","13","odd","legacy","33650","NA","652","2060","33647","33752","NA","NA","659","36092","NA","34755","34756","NA","NA","Feature Shift Prototypes","0","12482","18","no","NA","no","1920","-8","0"
"undefined","undefined","683.368421053","683.368421053","white","no","legacy","legacy","legacy","0","relative","undefined","NA","undefined","undefined","18","NA","0","0","18","18","NA","NA","0","18","0","18","18","0","0","Thu 31 Oct 2019 11:45:00 GMT","","yes","facialproto_short.osexp","/home/andy/svn/rmip/docs/openseslib","3","030-8.png","no","mono","no","18","no","black","no","no","1080","legacy","18","18","/home/andy/svn/rmip/docs/openseslib/subject-13.csv","legacy","Kafkaesque Koffka","3.2.7","exposure","0","5","NA","space","5","NA","502","NA","1401","502","NA","2","legacy","vertical","1024","2","48000","-16","experiment","13","odd","legacy","36174","NA","652","2060","36171","36276","NA","NA","659","37781","NA","37278","37279","NA","NA","Feature Shift Prototypes","0","12984","19","no","NA","no","1920","0","-8"
"undefined","undefined","671.8","671.8","white","no","legacy","legacy","legacy","0","relative","undefined","NA","undefined","undefined","19","NA","0","0","19","19","NA","NA","0","19","0","19","19","0","0","Thu 31 Oct 2019 11:45:00 GMT","","yes","facialproto_short.osexp","/home/andy/svn/rmip/docs/openseslib","2","0280.png","no","mono","no","18","no","black","no","no","1080","legacy","19","19","/home/andy/svn/rmip/docs/openseslib/subject-13.csv","legacy","Kafkaesque Koffka","3.2.7","exposure","0","4","NA","space","4","NA","452","NA","1401","452","NA","2","legacy","horizontal","1024","2","48000","-16","experiment","13","odd","legacy","37863","NA","652","2060","37860","37965","NA","NA","659","39420","NA","38967","38968","NA","NA","Feature Shift Prototypes","0","13436","20","no","NA","no","1920","8","0"
"undefined","undefined","664.666666667","664.666666667","white","no","legacy","legacy","legacy","0","relative","undefined","NA","undefined","undefined","20","NA","0","0","20","20","NA","NA","0","20","0","20","20","0","0","Thu 31 Oct 2019 11:45:00 GMT","","yes","facialproto_short.osexp","/home/andy/svn/rmip/docs/openseslib","2","0280.png","no","mono","no","18","no","black","no","no","1080","legacy","20","20","/home/andy/svn/rmip/docs/openseslib/subject-13.csv","legacy","Kafkaesque Koffka","3.2.7","exposure","0","6","NA","space","6","NA","522","NA","1401","522","NA","2","legacy","horizontal","1024","2","48000","-16","experiment","13","odd","legacy","39503","NA","652","2060","39500","39606","NA","NA","659","41132","NA","40609","40610","NA","NA","Feature Shift Prototypes","0","13958","21","no","NA","no","1920","8","0"
"undefined","undefined","718.545454545","718.545454545","white","no","legacy","legacy","legacy","0","relative","undefined","NA","undefined","undefined","21","NA","0","0","21","21","NA","NA","0","21","0","21","21","0","0","Thu 31 Oct 2019 11:45:00 GMT","","yes","facialproto_short.osexp","/home/andy/svn/rmip/docs/openseslib","6","0680.png","no","mono","no","18","no","black","no","no","1080","legacy","21","21","/home/andy/svn/rmip/docs/openseslib/subject-13.csv","legacy","Kafkaesque Koffka","3.2.7","exposure","0","7","NA","space","7","NA","1850","NA","1401","1850","NA","2","legacy","horizontal","1024","2","48000","-16","experiment","13","odd","legacy","41217","NA","652","2060","41213","41319","NA","NA","659","44172","NA","42321","42322","NA","NA","Feature Shift Prototypes","0","15808","22","no","NA","no","1920","8","0"
"undefined","undefined","707.47826087","707.47826087","white","no","legacy","legacy","legacy","0","relative","undefined","NA","undefined","undefined","22","NA","0","0","22","22","NA","NA","0","22","0","22","22","0","0","Thu 31 Oct 2019 11:45:00 GMT","","yes","facialproto_short.osexp","/home/andy/svn/rmip/docs/openseslib","3","030-8.png","no","mono","no","18","no","black","no","no","1080","legacy","22","22","/home/andy/svn/rmip/docs/openseslib/subject-13.csv","legacy","Kafkaesque Koffka","3.2.7","exposure","0","4","NA","space","4","NA","464","NA","1401","464","NA","2","legacy","vertical","1024","2","48000","-16","experiment","13","odd","legacy","44260","NA","652","2060","44257","44363","NA","NA","659","45829","NA","45365","45365","NA","NA","Feature Shift Prototypes","0","16272","23","no","NA","no","1920","0","-8"
"undefined","undefined","714","714","white","no","legacy","legacy","legacy","0","relative","undefined","NA","undefined","undefined","23","NA","0","0","23","23","NA","NA","0","23","0","23","23","0","0","Thu 31 Oct 2019 11:45:00 GMT","","yes","facialproto_short.osexp","/home/andy/svn/rmip/docs/openseslib","1","0108.png","no","mono","no","18","no","black","no","no","1080","legacy","23","23","/home/andy/svn/rmip/docs/openseslib/subject-13.csv","legacy","Kafkaesque Koffka","3.2.7","exposure","0","5","NA","space","5","NA","864","NA","1401","864","NA","2","legacy","vertical","1024","2","48000","-16","experiment","13","odd","legacy","45923","NA","652","2060","45920","46026","NA","NA","659","47893","NA","47028","47029","NA","NA","Feature Shift Prototypes","0","17136","24","no","NA","no","1920","0","8"
"undefined","undefined","712.8","712.8","white","no","legacy","legacy","legacy","0","relative","undefined","NA","undefined","undefined","24","NA","0","0","24","24","NA","NA","0","24","0","24","24","0","0","Thu 31 Oct 2019 11:45:00 GMT","","yes","facialproto_short.osexp","/home/andy/svn/rmip/docs/openseslib","1","0108.png","no","mono","no","18","no","black","no","no","1080","legacy","24","24","/home/andy/svn/rmip/docs/openseslib/subject-13.csv","legacy","Kafkaesque Koffka","3.2.7","exposure","0","3","NA","space","3","NA","684","NA","1401","684","NA","2","legacy","vertical","1024","2","48000","-16","experiment","13","odd","legacy","47975","NA","652","2060","47972","48077","NA","NA","659","49765","NA","49080","49081","NA","NA","Feature Shift Prototypes","0","17820","25","no","NA","no","1920","0","8"
"undefined","undefined","711.461538462","711.461538462","white","no","legacy","legacy","legacy","0","relative","undefined","NA","undefined","undefined","25","NA","0","0","25","25","NA","NA","0","25","0","25","25","0","0","Thu 31 Oct 2019 11:45:00 GMT","","yes","facialproto_short.osexp","/home/andy/svn/rmip/docs/openseslib","5","050-8.png","no","mono","no","18","no","black","no","no","1080","legacy","25","25","/home/andy/svn/rmip/docs/openseslib/subject-13.csv","legacy","Kafkaesque Koffka","3.2.7","exposure","0","6","NA","space","6","NA","678","NA","1401","678","NA","2","legacy","vertical","1024","2","48000","-16","experiment","13","odd","legacy","49853","NA","652","2060","49850","49955","NA","NA","659","51637","NA","50957","50958","NA","NA","Feature Shift Prototypes","0","18498","26","no","NA","no","1920","0","-8"
"undefined","undefined","711.111111111","711.111111111","white","no","legacy","legacy","legacy","0","relative","undefined","NA","undefined","undefined","26","NA","0","0","26","26","NA","NA","0","26","0","26","26","0","0","Thu 31 Oct 2019 11:45:00 GMT","","yes","facialproto_short.osexp","/home/andy/svn/rmip/docs/openseslib","8","08-80.png","no","mono","no","18","no","black","no","no","1080","legacy","26","26","/home/andy/svn/rmip/docs/openseslib/subject-13.csv","legacy","Kafkaesque Koffka","3.2.7","exposure","0","5","NA","space","5","NA","702","NA","1401","702","NA","2","legacy","horizontal","1024","2","48000","-16","experiment","13","odd","legacy","51718","NA","652","2060","51715","51820","NA","NA","659","53525","NA","52822","52823","NA","NA","Feature Shift Prototypes","0","19200","27","no","NA","no","1920","-8","0"
"undefined","undefined","704.714285714","704.714285714","white","no","legacy","legacy","legacy","0","relative","undefined","NA","undefined","undefined","27","NA","0","0","27","27","NA","NA","0","27","0","27","27","0","0","Thu 31 Oct 2019 11:45:00 GMT","","yes","facialproto_short.osexp","/home/andy/svn/rmip/docs/openseslib","5","050-8.png","no","mono","no","18","no","black","no","no","1080","legacy","27","27","/home/andy/svn/rmip/docs/openseslib/subject-13.csv","legacy","Kafkaesque Koffka","3.2.7","exposure","0","3","NA","space","3","NA","532","NA","1401","532","NA","2","legacy","vertical","1024","2","48000","-16","experiment","13","odd","legacy","53607","NA","652","2060","53604","53709","NA","NA","659","55244","NA","54711","54712","NA","NA","Feature Shift Prototypes","0","19732","28","no","NA","no","1920","0","-8"
"undefined","undefined","702.344827586","702.344827586","white","no","legacy","legacy","legacy","0","relative","undefined","NA","undefined","undefined","28","NA","0","0","28","28","NA","NA","0","28","0","28","28","0","0","Thu 31 Oct 2019 11:45:00 GMT","","yes","facialproto_short.osexp","/home/andy/svn/rmip/docs/openseslib","5","0508.png","no","mono","no","18","no","black","no","no","1080","legacy","28","28","/home/andy/svn/rmip/docs/openseslib/subject-13.csv","legacy","Kafkaesque Koffka","3.2.7","exposure","0","6","NA","space","6","NA","636","NA","1401","636","NA","2","legacy","vertical","1024","2","48000","-16","experiment","13","odd","legacy","55325","NA","652","2060","55323","55428","NA","NA","659","57073","NA","56431","56432","NA","NA","Feature Shift Prototypes","0","20368","29","no","NA","no","1920","0","8"
"undefined","undefined","717.733333333","717.733333333","white","no","legacy","legacy","legacy","0","relative","undefined","NA","undefined","undefined","29","NA","0","0","29","29","NA","NA","0","29","0","29","29","0","0","Thu 31 Oct 2019 11:45:00 GMT","","yes","facialproto_short.osexp","/home/andy/svn/rmip/docs/openseslib","7","070-8.png","no","mono","no","18","no","black","no","no","1080","legacy","29","29","/home/andy/svn/rmip/docs/openseslib/subject-13.csv","legacy","Kafkaesque Koffka","3.2.7","exposure","0","5","NA","space","5","NA","1164","NA","1401","1164","NA","2","legacy","vertical","1024","2","48000","-16","experiment","13","odd","legacy","57167","NA","652","2060","57164","57269","NA","NA","659","59438","NA","58272","58273","NA","NA","Feature Shift Prototypes","0","21532","30","no","NA","no","1920","0","-8"
"undefined","undefined","718.548387097","718.548387097","white","no","legacy","legacy","legacy","0","relative","undefined","NA","undefined","undefined","30","NA","0","0","30","30","NA","NA","0","30","0","30","30","0","0","Thu 31 Oct 2019 11:45:00 GMT","","yes","facialproto_short.osexp","/home/andy/svn/rmip/docs/openseslib","7","0708.png","no","mono","no","18","no","black","no","no","1080","legacy","30","30","/home/andy/svn/rmip/docs/openseslib/subject-13.csv","legacy","Kafkaesque Koffka","3.2.7","exposure","0","6","NA","space","6","NA","743","NA","1401","743","NA","2","legacy","vertical","1024","2","48000","-16","experiment","13","odd","legacy","59531","NA","652","2060","59528","59634","NA","NA","659","61380","NA","60636","60636","NA","NA","Feature Shift Prototypes","0","22275","31","no","NA","no","1920","0","8"
"undefined","undefined","740.40625","740.40625","white","no","legacy","legacy","legacy","0","relative","undefined","NA","undefined","undefined","31","NA","0","0","31","31","NA","NA","0","31","0","31","31","0","0","Thu 31 Oct 2019 11:45:00 GMT","","yes","facialproto_short.osexp","/home/andy/svn/rmip/docs/openseslib","8","0880.png","no","mono","no","18","no","black","no","no","1080","legacy","31","31","/home/andy/svn/rmip/docs/openseslib/subject-13.csv","legacy","Kafkaesque Koffka","3.2.7","exposure","0","3","NA","space","3","NA","1418","NA","1401","1418","NA","2","legacy","horizontal","1024","2","48000","-16","experiment","13","odd","legacy","61488","NA","652","2060","61485","61591","NA","NA","659","64012","NA","62593","62593","NA","NA","Feature Shift Prototypes","0","23693","32","no","NA","no","1920","8","0"
"undefined","undefined","733.424242424","733.424242424","white","no","legacy","legacy","legacy","0","relative","undefined","undefined","undefined","undefined","32","0","0","0","31","31","0","0","0","32","0","31","31","0","0","Thu 31 Oct 2019 11:45:00 GMT","","yes","facialproto_short.osexp","/home/andy/svn/rmip/docs/openseslib","7","070-12.png","no","mono","no","18","no","black","no","no","1080","legacy","0","31","/home/andy/svn/rmip/docs/openseslib/subject-13.csv","legacy","Kafkaesque Koffka","3.2.7","test","0","6","6","space","3","space","510","510","1401","1418","943","2","legacy","vertical","1024","2","48000","-16","experiment","13","odd","legacy","65048","65045","652","2060","61485","61591","65150","65150","659","65661","NA","62593","62593","65012","64069","Feature Shift Prototypes","0","24203","33","no","unseen","no","1920","0","-12"
"undefined","undefined","722.882352941","722.882352941","white","no","legacy","legacy","legacy","0","relative","undefined","undefined","undefined","undefined","33","1","0","0","31","31","1","1","0","33","0","31","31","0","0","Thu 31 Oct 2019 11:45:00 GMT","","yes","facialproto_short.osexp","/home/andy/svn/rmip/docs/openseslib","3","030-12.png","no","mono","no","18","no","black","no","no","1080","legacy","1","31","/home/andy/svn/rmip/docs/openseslib/subject-13.csv","legacy","Kafkaesque Koffka","3.2.7","test","0","3","3","space","3","space","375","375","1401","1418","943","2","legacy","vertical","1024","2","48000","-16","experiment","13","odd","legacy","65733","65730","652","2060","61485","61591","65835","65836","659","66212","NA","62593","62593","65012","64069","Feature Shift Prototypes","0","24578","34","no","unseen","no","1920","0","-12"
"undefined","undefined","711.6","711.6","white","no","legacy","legacy","legacy","0","relative","undefined","undefined","undefined","undefined","34","2","0","0","31","31","2","2","0","34","0","31","31","0","0","Thu 31 Oct 2019 11:45:00 GMT","","yes","facialproto_short.osexp","/home/andy/svn/rmip/docs/openseslib","1","0100.png","no","mono","no","18","no","black","no","no","1080","legacy","2","31","/home/andy/svn/rmip/docs/openseslib/subject-13.csv","legacy","Kafkaesque Koffka","3.2.7","test","0","4","4","space","3","space","328","328","1401","1418","943","2","legacy","vertical","1024","2","48000","-16","experiment","13","odd","legacy","66309","66306","652","2060","61485","61591","66411","66412","659","66741","NA","62593","62593","65012","64069","Feature Shift Prototypes","0","24906","35","no","prototype","no","1920","0","0"
"undefined","undefined","699.777777778","699.777777778","white","no","legacy","legacy","legacy","0","relative","undefined","undefined","undefined","undefined","35","3","0","0","31","31","3","3","0","35","0","31","31","0","0","Thu 31 Oct 2019 11:45:00 GMT","","yes","facialproto_short.osexp","/home/andy/svn/rmip/docs/openseslib","8","0880.png","no","mono","no","18","no","black","no","no","1080","legacy","3","31","/home/andy/svn/rmip/docs/openseslib/subject-13.csv","legacy","Kafkaesque Koffka","3.2.7","test","0","5","5","space","3","space","286","286","1401","1418","943","2","legacy","horizontal","1024","2","48000","-16","experiment","13","odd","legacy","66814","66811","652","2060","61485","61591","66917","66917","659","67204","NA","62593","62593","65012","64069","Feature Shift Prototypes","0","25192","36","no","seen","no","1920","8","0"
"undefined","undefined","690.864864865","690.864864865","white","no","legacy","legacy","legacy","0","relative","undefined","undefined","undefined","undefined","36","4","0","0","31","31","4","4","0","36","0","31","31","0","0","Thu 31 Oct 2019 11:45:00 GMT","","yes","facialproto_short.osexp","/home/andy/svn/rmip/docs/openseslib","2","02-80.png","no","mono","no","18","no","black","no","no","1080","legacy","4","31","/home/andy/svn/rmip/docs/openseslib/subject-13.csv","legacy","Kafkaesque Koffka","3.2.7","test","0","3","3","space","3","space","370","370","1401","1418","943","2","legacy","horizontal","1024","2","48000","-16","experiment","13","odd","legacy","67307","67301","652","2060","61485","61591","67410","67410","659","67781","NA","62593","62593","65012","64069","Feature Shift Prototypes","0","25562","37","no","seen","no","1920","-8","0"
"undefined","undefined","685.078947368","685.078947368","white","no","legacy","legacy","legacy","0","relative","undefined","undefined","undefined","undefined","37","5","0","0","31","31","5","5","0","37","0","31","31","0","0","Thu 31 Oct 2019 11:45:00 GMT","","yes","facialproto_short.osexp","/home/andy/svn/rmip/docs/openseslib","4","0400.png","no","mono","no","18","no","black","no","no","1080","legacy","5","31","/home/andy/svn/rmip/docs/openseslib/subject-13.csv","legacy","Kafkaesque Koffka","3.2.7","test","0","7","7","space","3","space","471","471","1401","1418","943","2","legacy","horizontal","1024","2","48000","-16","experiment","13","odd","legacy","67852","67850","652","2060","61485","61591","67956","67956","659","68428","NA","62593","62593","65012","64069","Feature Shift Prototypes","0","26033","38","no","prototype","no","1920","0","0"
"undefined","undefined","677.282051282","677.282051282","white","no","legacy","legacy","legacy","0","relative","undefined","undefined","undefined","undefined","38","6","0","0","31","31","6","6","0","38","0","31","31","0","0","Thu 31 Oct 2019 11:45:00 GMT","","yes","facialproto_short.osexp","/home/andy/svn/rmip/docs/openseslib","1","01012.png","no","mono","no","18","no","black","no","no","1080","legacy","6","31","/home/andy/svn/rmip/docs/openseslib/subject-13.csv","legacy","Kafkaesque Koffka","3.2.7","test","0","4","4","space","3","space","381","381","1401","1418","943","2","legacy","vertical","1024","2","48000","-16","experiment","13","odd","legacy","68504","68501","652","2060","61485","61591","68606","68607","659","68989","NA","62593","62593","65012","64069","Feature Shift Prototypes","0","26414","39","no","unseen","no","1920","0","12"
"undefined","undefined","673.55","673.55","white","no","legacy","legacy","legacy","0","relative","undefined","undefined","undefined","undefined","39","7","0","0","31","31","7","7","0","39","0","31","31","0","0","Thu 31 Oct 2019 11:45:00 GMT","","yes","facialproto_short.osexp","/home/andy/svn/rmip/docs/openseslib","8","08-120.png","no","mono","no","18","no","black","no","no","1080","legacy","7","31","/home/andy/svn/rmip/docs/openseslib/subject-13.csv","legacy","Kafkaesque Koffka","3.2.7","test","0","6","6","space","3","space","528","528","1401","1418","943","2","legacy","horizontal","1024","2","48000","-16","experiment","13","odd","legacy","69060","69057","652","2060","61485","61591","69164","69164","659","69693","NA","62593","62593","65012","64069","Feature Shift Prototypes","0","26942","40","no","unseen","no","1920","-12","0"
"undefined","undefined","665.268292683","665.268292683","white","no","legacy","legacy","legacy","0","relative","undefined","undefined","undefined","undefined","40","8","0","0","31","31","8","8","0","40","0","31","31","0","0","Thu 31 Oct 2019 11:45:00 GMT","","yes","facialproto_short.osexp","/home/andy/svn/rmip/docs/openseslib","2","02120.png","no","mono","no","18","no","black","no","no","1080","legacy","8","31","/home/andy/svn/rmip/docs/openseslib/subject-13.csv","legacy","Kafkaesque Koffka","3.2.7","test","0","3","3","space","3","space","334","334","1401","1418","943","2","legacy","horizontal","1024","2","48000","-16","experiment","13","odd","legacy","69766","69763","652","2060","61485","61591","69868","69869","659","70204","NA","62593","62593","65012","64069","Feature Shift Prototypes","0","27276","41","no","unseen","no","1920","12","0"
"undefined","undefined","658.428571429","658.428571429","white","no","legacy","legacy","legacy","0","relative","undefined","undefined","undefined","undefined","41","9","0","0","31","31","9","9","0","41","0","31","31","0","0","Thu 31 Oct 2019 11:45:00 GMT","","yes","facialproto_short.osexp","/home/andy/svn/rmip/docs/openseslib","4","04-120.png","no","mono","no","18","no","black","no","no","1080","legacy","9","31","/home/andy/svn/rmip/docs/openseslib/subject-13.csv","legacy","Kafkaesque Koffka","3.2.7","test","0","4","4","space","3","space","378","378","1401","1418","943","2","legacy","horizontal","1024","2","48000","-16","experiment","13","odd","legacy","70275","70272","652","2060","61485","61591","70377","70378","659","70757","NA","62593","62593","65012","64069","Feature Shift Prototypes","0","27654","42","no","unseen","no","1920","-12","0"
"undefined","undefined","650.348837209","650.348837209","white","no","legacy","legacy","legacy","0","relative","undefined","undefined","undefined","undefined","42","10","0","0","31","31","10","10","0","42","0","31","31","0","0","Thu 31 Oct 2019 11:45:00 GMT","","yes","facialproto_short.osexp","/home/andy/svn/rmip/docs/openseslib","6","06-80.png","no","mono","no","18","no","black","no","no","1080","legacy","10","31","/home/andy/svn/rmip/docs/openseslib/subject-13.csv","legacy","Kafkaesque Koffka","3.2.7","test","0","6","6","space","3","space","311","311","1401","1418","943","2","legacy","horizontal","1024","2","48000","-16","experiment","13","odd","legacy","70829","70826","652","2060","61485","61591","70931","70932","659","71244","NA","62593","62593","65012","64069","Feature Shift Prototypes","0","27965","43","no","seen","no","1920","-8","0"
"undefined","undefined","641.227272727","641.227272727","white","no","legacy","legacy","legacy","0","relative","undefined","undefined","undefined","undefined","43","11","0","0","31","31","11","11","0","43","0","31","31","0","0","Thu 31 Oct 2019 11:45:00 GMT","","yes","facialproto_short.osexp","/home/andy/svn/rmip/docs/openseslib","6","06120.png","no","mono","no","18","no","black","no","no","1080","legacy","11","31","/home/andy/svn/rmip/docs/openseslib/subject-13.csv","legacy","Kafkaesque Koffka","3.2.7","test","0","5","5","space","3","space","249","249","1401","1418","943","2","legacy","horizontal","1024","2","48000","-16","experiment","13","odd","legacy","71316","71313","652","2060","61485","61591","71420","71420","659","71669","NA","62593","62593","65012","64069","Feature Shift Prototypes","0","28214","44","no","unseen","no","1920","12","0"
"undefined","undefined","633.488888889","633.488888889","white","no","legacy","legacy","legacy","0","relative","undefined","undefined","undefined","undefined","44","12","0","0","31","31","12","12","0","44","0","31","31","0","0","Thu 31 Oct 2019 11:45:00 GMT","","yes","facialproto_short.osexp","/home/andy/svn/rmip/docs/openseslib","3","0300.png","no","mono","no","18","no","black","no","no","1080","legacy","12","31","/home/andy/svn/rmip/docs/openseslib/subject-13.csv","legacy","Kafkaesque Koffka","3.2.7","test","0","4","4","space","3","space","293","293","1401","1418","943","2","legacy","vertical","1024","2","48000","-16","experiment","13","odd","legacy","71751","71748","652","2060","61485","61591","71854","71854","659","72148","NA","62593","62593","65012","64069","Feature Shift Prototypes","0","28507","45","no","prototype","no","1920","0","0"
"undefined","undefined","625.065217391","625.065217391","white","no","legacy","legacy","legacy","0","relative","undefined","undefined","undefined","undefined","45","13","0","0","31","31","13","13","0","45","0","31","31","0","0","Thu 31 Oct 2019 11:45:00 GMT","","yes","facialproto_short.osexp","/home/andy/svn/rmip/docs/openseslib","1","010-8.png","no","mono","no","18","no","black","no","no","1080","legacy","13","31","/home/andy/svn/rmip/docs/openseslib/subject-13.csv","legacy","Kafkaesque Koffka","3.2.7","test","0","3","3","space","3","space","246","246","1401","1418","943","2","legacy","vertical","1024","2","48000","-16","experiment","13","odd","legacy","72231","72228","652","2060","61485","61591","72333","72334","659","72581","NA","62593","62593","65012","64069","Feature Shift Prototypes","0","28753","46","no","seen","no","1920","0","-8"
"undefined","undefined","616.808510638","616.808510638","white","no","legacy","legacy","legacy","0","relative","undefined","undefined","undefined","undefined","46","14","0","0","31","31","14","14","0","46","0","31","31","0","0","Thu 31 Oct 2019 11:45:00 GMT","","yes","facialproto_short.osexp","/home/andy/svn/rmip/docs/openseslib","4","0480.png","no","mono","no","18","no","black","no","no","1080","legacy","14","31","/home/andy/svn/rmip/docs/openseslib/subject-13.csv","legacy","Kafkaesque Koffka","3.2.7","test","0","4","4","space","3","space","237","237","1401","1418","943","2","legacy","horizontal","1024","2","48000","-16","experiment","13","odd","legacy","72670","72667","652","2060","61485","61591","72773","72774","659","73012","NA","62593","62593","65012","64069","Feature Shift Prototypes","0","28990","47","no","seen","no","1920","8","0"
"undefined","undefined","609.291666667","609.291666667","white","no","legacy","legacy","legacy","0","relative","undefined","undefined","undefined","undefined","47","15","0","0","31","31","15","15","0","47","0","31","31","0","0","Thu 31 Oct 2019 11:45:00 GMT","","yes","facialproto_short.osexp","/home/andy/svn/rmip/docs/openseslib","3","0308.png","no","mono","no","18","no","black","no","no","1080","legacy","15","31","/home/andy/svn/rmip/docs/openseslib/subject-13.csv","legacy","Kafkaesque Koffka","3.2.7","test","0","5","5","space","3","space","256","256","1401","1418","943","2","legacy","vertical","1024","2","48000","-16","experiment","13","odd","legacy","73085","73082","652","2060","61485","61591","73187","73187","659","73444","NA","62593","62593","65012","64069","Feature Shift Prototypes","0","29246","48","no","seen","no","1920","0","8"
"undefined","undefined","604.469387755","604.469387755","white","no","legacy","legacy","legacy","0","relative","undefined","undefined","undefined","undefined","48","16","0","0","31","31","16","16","0","48","0","31","31","0","0","Thu 31 Oct 2019 11:45:00 GMT","","yes","facialproto_short.osexp","/home/andy/svn/rmip/docs/openseslib","5","0500.png","no","mono","no","18","no","black","no","no","1080","legacy","16","31","/home/andy/svn/rmip/docs/openseslib/subject-13.csv","legacy","Kafkaesque Koffka","3.2.7","test","0","6","6","space","3","space","373","373","1401","1418","943","2","legacy","vertical","1024","2","48000","-16","experiment","13","odd","legacy","73520","73517","652","2060","61485","61591","73622","73623","659","73997","NA","62593","62593","65012","64069","Feature Shift Prototypes","0","29619","49","no","prototype","no","1920","0","0"
"undefined","undefined","597.8","597.8","white","no","legacy","legacy","legacy","0","relative","undefined","undefined","undefined","undefined","49","17","0","0","31","31","17","17","0","49","0","31","31","0","0","Thu 31 Oct 2019 11:45:00 GMT","","yes","facialproto_short.osexp","/home/andy/svn/rmip/docs/openseslib","7","0708.png","no","mono","no","18","no","black","no","no","1080","legacy","17","31","/home/andy/svn/rmip/docs/openseslib/subject-13.csv","legacy","Kafkaesque Koffka","3.2.7","test","0","3","3","space","3","space","271","271","1401","1418","943","2","legacy","vertical","1024","2","48000","-16","experiment","13","odd","legacy","74077","74074","652","2060","61485","61591","74179","74180","659","74452","NA","62593","62593","65012","64069","Feature Shift Prototypes","0","29890","50","no","seen","no","1920","0","8"
"undefined","undefined","589.039215686","589.039215686","white","no","legacy","legacy","legacy","0","relative","undefined","undefined","undefined","undefined","50","18","0","0","31","31","18","18","0","50","0","31","31","0","0","Thu 31 Oct 2019 11:45:00 GMT","","yes","facialproto_short.osexp","/home/andy/svn/rmip/docs/openseslib","8","0800.png","no","mono","no","18","no","black","no","no","1080","legacy","18","31","/home/andy/svn/rmip/docs/openseslib/subject-13.csv","legacy","Kafkaesque Koffka","3.2.7","test","0","4","4","space","3","space","151","151","1401","1418","943","2","legacy","horizontal","1024","2","48000","-16","experiment","13","odd","legacy","74527","74524","652","2060","61485","61591","74629","74629","659","74781","NA","62593","62593","65012","64069","Feature Shift Prototypes","0","30041","51","no","prototype","no","1920","0","0"
"undefined","undefined","585.384615385","585.384615385","white","no","legacy","legacy","legacy","0","relative","undefined","undefined","undefined","undefined","51","19","0","0","31","31","19","19","0","51","0","31","31","0","0","Thu 31 Oct 2019 11:45:00 GMT","","yes","facialproto_short.osexp","/home/andy/svn/rmip/docs/openseslib","7","0700.png","no","mono","no","18","no","black","no","no","1080","legacy","19","31","/home/andy/svn/rmip/docs/openseslib/subject-13.csv","legacy","Kafkaesque Koffka","3.2.7","test","0","7","7","space","3","space","399","399","1401","1418","943","2","legacy","vertical","1024","2","48000","-16","experiment","13","odd","legacy","74853","74850","652","2060","61485","61591","74955","74956","659","75356","NA","62593","62593","65012","64069","Feature Shift Prototypes","0","30440","52","no","prototype","no","1920","0","0"
"undefined","undefined","578.58490566","578.58490566","white","no","legacy","legacy","legacy","0","relative","undefined","undefined","undefined","undefined","52","20","0","0","31","31","20","20","0","52","0","31","31","0","0","Thu 31 Oct 2019 11:45:00 GMT","","yes","facialproto_short.osexp","/home/andy/svn/rmip/docs/openseslib","2","0200.png","no","mono","no","18","no","black","no","no","1080","legacy","20","31","/home/andy/svn/rmip/docs/openseslib/subject-13.csv","legacy","Kafkaesque Koffka","3.2.7","test","0","3","3","space","3","space","225","225","1401","1418","943","2","legacy","horizontal","1024","2","48000","-16","experiment","13","odd","legacy","75429","75426","652","2060","61485","61591","75531","75531","659","75757","NA","62593","62593","65012","64069","Feature Shift Prototypes","0","30665","53","no","prototype","no","1920","0","0"
"undefined","undefined","574.666666667","574.666666667","white","no","legacy","legacy","legacy","0","relative","undefined","undefined","undefined","undefined","53","21","0","0","31","31","21","21","0","53","0","31","31","0","0","Thu 31 Oct 2019 11:45:00 GMT","","yes","facialproto_short.osexp","/home/andy/svn/rmip/docs/openseslib","5","05012.png","no","mono","no","18","no","black","no","no","1080","legacy","21","31","/home/andy/svn/rmip/docs/openseslib/subject-13.csv","legacy","Kafkaesque Koffka","3.2.7","test","0","4","4","space","3","space","367","367","1401","1418","943","2","legacy","vertical","1024","2","48000","-16","experiment","13","odd","legacy","75830","75827","652","2060","61485","61591","75932","75932","659","76300","NA","62593","62593","65012","64069","Feature Shift Prototypes","0","31032","54","no","unseen","no","1920","0","12"
"undefined","undefined","568.8","568.8","white","no","legacy","legacy","legacy","0","relative","undefined","undefined","undefined","undefined","54","22","0","0","31","31","22","22","0","54","0","31","31","0","0","Thu 31 Oct 2019 11:45:00 GMT","","yes","facialproto_short.osexp","/home/andy/svn/rmip/docs/openseslib","5","050-8.png","no","mono","no","18","no","black","no","no","1080","legacy","22","31","/home/andy/svn/rmip/docs/openseslib/subject-13.csv","legacy","Kafkaesque Koffka","3.2.7","test","0","6","6","space","3","space","252","252","1401","1418","943","2","legacy","vertical","1024","2","48000","-16","experiment","13","odd","legacy","76393","76390","652","2060","61485","61591","76496","76496","659","76749","NA","62593","62593","65012","64069","Feature Shift Prototypes","0","31284","55","no","seen","no","1920","0","-8"
"undefined","undefined","563","563","white","no","legacy","legacy","legacy","0","relative","undefined","undefined","undefined","undefined","55","23","0","0","31","31","23","23","0","55","0","31","31","0","0","Thu 31 Oct 2019 11:45:00 GMT","","yes","facialproto_short.osexp","/home/andy/svn/rmip/docs/openseslib","6","0600.png","no","mono","no","18","no","black","no","no","1080","legacy","23","31","/home/andy/svn/rmip/docs/openseslib/subject-13.csv","legacy","Kafkaesque Koffka","3.2.7","test","0","4","4","space","3","space","244","244","1401","1418","943","2","legacy","horizontal","1024","2","48000","-16","experiment","13","odd","legacy","76839","76836","652","2060","61485","61591","76943","76943","659","77188","NA","62593","62593","65012","64069","Feature Shift Prototypes","0","31528","56","no","prototype","no","1920","0","0"
