subj,sex,medit,block,trial,word,pic,congru,acc,rt
1,male,meditate,1,1,orange,orange,cong,1,439
1,male,meditate,1,2,moon,hat,incong,1,263
1,male,meditate,1,3,apple,scissors,incong,1,292
1,male,meditate,1,4,pizza,bus,incong,1,327
1,male,meditate,1,5,cake,cake,cong,1,459
1,male,meditate,1,6,tree,NA,neutral,1,396
1,male,meditate,1,7,dog,NA,neutral,1,383
1,male,meditate,1,8,ball,cherry,incong,1,281
1,male,meditate,1,9,carrot,anchor,incong,1,252
1,male,meditate,1,10,cat,cat,cong,1,471
1,male,meditate,1,11,tree,horse,incong,1,272
1,male,meditate,1,12,ball,ball,cong,1,496
1,male,meditate,1,13,apple,NA,neutral,1,365
1,male,meditate,1,14,bus,apple,incong,1,309
1,male,meditate,1,15,bus,NA,neutral,1,373
1,male,meditate,1,16,spoon,dog,incong,0,245
1,male,meditate,1,17,bus,bus,cong,0,449
1,male,meditate,1,18,cherry,cherry,cong,1,431
1,male,meditate,1,19,fork,NA,neutral,1,394
1,male,meditate,1,20,burger,church,incong,1,297
1,male,meditate,1,21,lemon,lemon,cong,1,484
1,male,meditate,1,22,cake,burger,incong,1,248
1,male,meditate,1,23,horse,cat,incong,1,273
1,male,meditate,1,24,cup,cup,cong,1,443
1,male,meditate,1,25,plate,stapler,incong,1,339
1,male,meditate,1,26,tree,tree,cong,1,421
1,male,meditate,1,27,moon,moon,cong,1,438
1,male,meditate,1,28,cherry,NA,neutral,1,408
1,male,meditate,1,29,carrot,NA,neutral,1,345
1,male,meditate,1,30,horse,horse,cong,0,467
1,male,meditate,2,31,car,NA,neutral,1,413
1,male,meditate,2,32,hammer,NA,neutral,1,374
1,male,meditate,2,33,drill,NA,neutral,1,550
1,male,meditate,2,34,pizza,NA,neutral,1,373
1,male,meditate,2,35,fork,drill,incong,1,438
1,male,meditate,2,36,scissors,NA,neutral,1,293
1,male,meditate,2,37,car,car,cong,1,383
1,male,meditate,2,38,stapler,stapler,cong,1,481
1,male,meditate,2,39,burger,NA,neutral,1,301
1,male,meditate,2,40,anchor,car,incong,1,215
1,male,meditate,2,41,drill,tree,incong,1,270
1,male,meditate,2,42,lemon,plate,incong,1,281
1,male,meditate,2,43,church,church,cong,1,521
1,male,meditate,2,44,drill,drill,cong,1,429
1,male,meditate,2,45,hammer,hammer,cong,1,480
1,male,meditate,2,46,stapler,boat,incong,1,298
1,male,meditate,2,47,shoe,shoe,cong,1,484
1,male,meditate,2,48,spoon,NA,neutral,1,453
1,male,meditate,2,49,plate,NA,neutral,1,334
1,male,meditate,2,50,apple,apple,cong,1,591
1,male,meditate,2,51,burger,burger,cong,1,380
1,male,meditate,2,52,orange,NA,neutral,0,343
1,male,meditate,2,53,star,NA,neutral,1,340
1,male,meditate,2,54,stapler,NA,neutral,1,423
1,male,meditate,2,55,pizza,pizza,cong,1,429
1,male,meditate,2,56,spoon,spoon,cong,1,399
1,male,meditate,2,57,anchor,NA,neutral,1,427
1,male,meditate,2,58,cherry,ball,incong,1,345
1,male,meditate,2,59,cup,spoon,incong,1,356
1,male,meditate,2,60,car,cake,incong,1,280
1,male,meditate,3,61,moon,NA,neutral,1,331
1,male,meditate,3,62,ball,NA,neutral,1,400
1,male,meditate,3,63,scissors,scissors,cong,1,379
1,male,meditate,3,64,cat,NA,neutral,1,377
1,male,meditate,3,65,plate,plate,cong,1,458
1,male,meditate,3,66,shoe,NA,neutral,1,415
1,male,meditate,3,67,hat,hat,cong,1,457
1,male,meditate,3,68,hammer,fork,incong,1,313
1,male,meditate,3,69,dog,orange,incong,1,233
1,male,meditate,3,70,orange,shoe,incong,1,260
1,male,meditate,3,71,hat,star,incong,0,356
1,male,meditate,3,72,carrot,carrot,cong,0,508
1,male,meditate,3,73,horse,NA,neutral,1,426
1,male,meditate,3,74,boat,boat,cong,1,488
1,male,meditate,3,75,star,star,cong,1,494
1,male,meditate,3,76,church,NA,neutral,1,320
1,male,meditate,3,77,hat,NA,neutral,1,347
1,male,meditate,3,78,shoe,pizza,incong,1,287
1,male,meditate,3,79,dog,dog,cong,1,504
1,male,meditate,3,80,lemon,NA,neutral,1,462
1,male,meditate,3,81,cat,cup,incong,1,338
1,male,meditate,3,82,star,lemon,incong,1,326
1,male,meditate,3,83,boat,carrot,incong,1,272
1,male,meditate,3,84,anchor,anchor,cong,1,449
1,male,meditate,3,85,fork,fork,cong,1,429
1,male,meditate,3,86,cake,NA,neutral,1,339
1,male,meditate,3,87,cup,NA,neutral,1,349
1,male,meditate,3,88,church,moon,incong,1,318
1,male,meditate,3,89,scissors,hammer,incong,1,293
1,male,meditate,3,90,boat,NA,neutral,0,470
2,male,meditate,1,1,cat,NA,neutral,1,499
2,male,meditate,1,2,church,dog,incong,1,421
2,male,meditate,1,3,burger,burger,cong,1,460
2,male,meditate,1,4,moon,NA,neutral,1,508
2,male,meditate,1,5,cake,NA,neutral,1,466
2,male,meditate,1,6,boat,NA,neutral,1,554
2,male,meditate,1,7,dog,NA,neutral,1,500
2,male,meditate,1,8,shoe,shoe,cong,1,495
2,male,meditate,1,9,fork,fork,cong,1,527
2,male,meditate,1,10,horse,horse,cong,1,517
2,male,meditate,1,11,bus,hat,incong,1,435
2,male,meditate,1,12,fork,fork,cong,1,646
2,male,meditate,1,13,horse,NA,neutral,1,487
2,male,meditate,1,14,church,NA,neutral,1,516
2,male,meditate,1,15,plate,plate,cong,1,598
2,male,meditate,1,16,burger,moon,incong,1,372
2,male,meditate,1,17,orange,cherry,incong,1,396
2,male,meditate,1,18,ball,NA,neutral,1,415
2,male,meditate,1,19,apple,apple,cong,1,540
2,male,meditate,1,20,spoon,spoon,cong,1,499
2,male,meditate,1,21,carrot,scissors,incong,1,373
2,male,meditate,1,22,drill,NA,neutral,1,461
2,male,meditate,1,23,anchor,cup,incong,1,436
2,male,meditate,1,24,drill,drill,cong,1,473
2,male,meditate,1,25,shoe,NA,neutral,1,469
2,male,meditate,1,26,stapler,stapler,cong,1,459
2,male,meditate,1,27,cup,cup,cong,1,454
2,male,meditate,1,28,cake,cake,cong,1,605
2,male,meditate,1,29,carrot,carrot,cong,1,543
2,male,meditate,1,30,orange,orange,cong,1,513
2,male,meditate,2,31,ball,horse,incong,1,477
2,male,meditate,2,32,boat,boat,cong,1,446
2,male,meditate,2,33,dog,dog,cong,1,593
2,male,meditate,2,34,pizza,pizza,cong,1,522
2,male,meditate,2,35,ball,ball,cong,1,544
2,male,meditate,2,36,tree,shoe,incong,1,354
2,male,meditate,2,37,dog,orange,incong,1,435
2,male,meditate,2,38,cup,car,incong,1,432
2,male,meditate,2,39,anchor,NA,neutral,1,358
2,male,meditate,2,40,bus,bus,cong,1,508
2,male,meditate,2,41,orange,NA,neutral,1,433
2,male,meditate,2,42,pizza,boat,incong,1,385
2,male,meditate,2,43,fork,NA,neutral,1,578
2,male,meditate,2,44,shoe,lemon,incong,1,433
2,male,meditate,2,45,pizza,NA,neutral,1,397
2,male,meditate,2,46,star,pizza,incong,1,445
2,male,meditate,2,47,apple,drill,incong,1,493
2,male,meditate,2,48,church,church,cong,1,593
2,male,meditate,2,49,spoon,NA,neutral,1,439
2,male,meditate,2,50,car,burger,incong,1,406
2,male,meditate,2,51,cat,cat,cong,1,485
2,male,meditate,2,52,hammer,anchor,incong,1,420
2,male,meditate,2,53,scissors,scissors,cong,1,612
2,male,meditate,2,54,hat,hat,cong,1,475
2,male,meditate,2,55,hammer,hammer,cong,1,560
2,male,meditate,2,56,carrot,NA,neutral,1,460
2,male,meditate,2,57,star,NA,neutral,1,526
2,male,meditate,2,58,cherry,star,incong,1,590
2,male,meditate,2,59,hat,hammer,incong,0,505
2,male,meditate,2,60,horse,plate,incong,1,390
2,male,meditate,3,61,bus,NA,neutral,1,435
2,male,meditate,3,62,lemon,NA,neutral,1,520
2,male,meditate,3,63,plate,stapler,incong,1,498
2,male,meditate,3,64,cherry,NA,neutral,1,538
2,male,meditate,3,65,moon,tree,incong,1,572
2,male,meditate,3,66,stapler,carrot,incong,1,492
2,male,meditate,3,67,burger,NA,neutral,1,499
2,male,meditate,3,68,scissors,NA,neutral,1,428
2,male,meditate,3,69,stapler,NA,neutral,1,709
2,male,meditate,3,70,spoon,cat,incong,1,457
2,male,meditate,3,71,moon,moon,cong,1,715
2,male,meditate,3,72,lemon,spoon,incong,1,474
2,male,meditate,3,73,drill,ball,incong,1,419
2,male,meditate,3,74,tree,tree,cong,1,546
2,male,meditate,3,75,star,star,cong,1,609
2,male,meditate,3,76,cup,NA,neutral,1,399
2,male,meditate,3,77,plate,NA,neutral,1,400
2,male,meditate,3,78,cat,cake,incong,0,367
2,male,meditate,3,79,car,NA,neutral,1,483
2,male,meditate,3,80,apple,NA,neutral,1,487
2,male,meditate,3,81,hammer,NA,neutral,1,521
2,male,meditate,3,82,scissors,bus,incong,1,378
2,male,meditate,3,83,lemon,lemon,cong,1,441
2,male,meditate,3,84,cherry,cherry,cong,1,882
2,male,meditate,3,85,tree,NA,neutral,1,546
2,male,meditate,3,86,hat,NA,neutral,1,514
2,male,meditate,3,87,anchor,anchor,cong,1,532
2,male,meditate,3,88,car,car,cong,1,422
2,male,meditate,3,89,boat,church,incong,1,411
2,male,meditate,3,90,cake,apple,incong,1,461
3,male,meditate,1,1,church,NA,neutral,0,393
3,male,meditate,1,2,spoon,cup,incong,1,463
3,male,meditate,1,3,burger,burger,cong,1,431
3,male,meditate,1,4,lemon,pizza,incong,1,388
3,male,meditate,1,5,cup,NA,neutral,1,499
3,male,meditate,1,6,burger,NA,neutral,1,467
3,male,meditate,1,7,plate,NA,neutral,1,396
3,male,meditate,1,8,boat,NA,neutral,1,489
3,male,meditate,1,9,hammer,NA,neutral,1,465
3,male,meditate,1,10,anchor,anchor,cong,1,443
3,male,meditate,1,11,star,NA,neutral,1,483
3,male,meditate,1,12,fork,NA,neutral,1,448
3,male,meditate,1,13,hat,spoon,incong,1,390
3,male,meditate,1,14,cake,ball,incong,1,440
3,male,meditate,1,15,moon,NA,neutral,1,439
3,male,meditate,1,16,anchor,NA,neutral,1,428
3,male,meditate,1,17,carrot,carrot,cong,1,446
3,male,meditate,1,18,boat,star,incong,1,477
3,male,meditate,1,19,hammer,anchor,incong,1,341
3,male,meditate,1,20,star,orange,incong,1,394
3,male,meditate,1,21,stapler,dog,incong,0,352
3,male,meditate,1,22,bus,cherry,incong,1,349
3,male,meditate,1,23,spoon,NA,neutral,1,447
3,male,meditate,1,24,car,car,cong,1,483
3,male,meditate,1,25,drill,drill,cong,0,494
3,male,meditate,1,26,lemon,NA,neutral,1,479
3,male,meditate,1,27,dog,dog,cong,1,481
3,male,meditate,1,28,fork,fork,cong,1,484
3,male,meditate,1,29,shoe,shoe,cong,1,444
3,male,meditate,1,30,orange,tree,incong,1,385
3,male,meditate,2,31,star,star,cong,1,525
3,male,meditate,2,32,tree,scissors,incong,1,396
3,male,meditate,2,33,car,NA,neutral,1,432
3,male,meditate,2,34,dog,cat,incong,1,332
3,male,meditate,2,35,horse,NA,neutral,1,375
3,male,meditate,2,36,moon,hat,incong,1,408
3,male,meditate,2,37,shoe,NA,neutral,1,333
3,male,meditate,2,38,tree,tree,cong,1,375
3,male,meditate,2,39,burger,bus,incong,1,284
3,male,meditate,2,40,orange,orange,cong,1,519
3,male,meditate,2,41,orange,NA,neutral,1,338
3,male,meditate,2,42,pizza,NA,neutral,1,553
3,male,meditate,2,43,cherry,cherry,cong,1,419
3,male,meditate,2,44,scissors,carrot,incong,1,376
3,male,meditate,2,45,carrot,NA,neutral,1,392
3,male,meditate,2,46,hat,hat,cong,1,456
3,male,meditate,2,47,fork,plate,incong,1,318
3,male,meditate,2,48,spoon,spoon,cong,1,409
3,male,meditate,2,49,drill,NA,neutral,1,353
3,male,meditate,2,50,ball,ball,cong,1,427
3,male,meditate,2,51,carrot,apple,incong,1,473
3,male,meditate,2,52,cherry,drill,incong,1,301
3,male,meditate,2,53,bus,bus,cong,1,381
3,male,meditate,2,54,plate,hammer,incong,1,417
3,male,meditate,2,55,apple,NA,neutral,1,472
3,male,meditate,2,56,church,shoe,incong,1,347
3,male,meditate,2,57,dog,NA,neutral,1,523
3,male,meditate,2,58,boat,boat,cong,1,388
3,male,meditate,2,59,stapler,NA,neutral,1,364
3,male,meditate,2,60,drill,boat,incong,1,370
3,male,meditate,3,61,horse,horse,cong,1,605
3,male,meditate,3,62,apple,stapler,incong,1,331
3,male,meditate,3,63,tree,NA,neutral,1,335
3,male,meditate,3,64,scissors,scissors,cong,1,364
3,male,meditate,3,65,shoe,lemon,incong,1,347
3,male,meditate,3,66,ball,NA,neutral,1,315
3,male,meditate,3,67,plate,plate,cong,1,407
3,male,meditate,3,68,apple,apple,cong,1,405
3,male,meditate,3,69,bus,NA,neutral,0,432
3,male,meditate,3,70,cup,cup,cong,1,436
3,male,meditate,3,71,cup,cake,incong,1,369
3,male,meditate,3,72,cake,cake,cong,1,361
3,male,meditate,3,73,car,church,incong,1,314
3,male,meditate,3,74,horse,moon,incong,1,294
3,male,meditate,3,75,cat,cat,cong,1,380
3,male,meditate,3,76,hammer,hammer,cong,1,625
3,male,meditate,3,77,cat,NA,neutral,1,328
3,male,meditate,3,78,anchor,burger,incong,1,319
3,male,meditate,3,79,stapler,stapler,cong,1,407
3,male,meditate,3,80,pizza,horse,incong,1,382
3,male,meditate,3,81,moon,moon,cong,1,373
3,male,meditate,3,82,pizza,pizza,cong,1,395
3,male,meditate,3,83,lemon,lemon,cong,1,385
3,male,meditate,3,84,cake,NA,neutral,1,475
3,male,meditate,3,85,cherry,NA,neutral,1,385
3,male,meditate,3,86,ball,fork,incong,1,368
3,male,meditate,3,87,scissors,NA,neutral,1,321
3,male,meditate,3,88,church,church,cong,1,454
3,male,meditate,3,89,cat,car,incong,1,308
3,male,meditate,3,90,hat,NA,neutral,1,399
4,male,meditate,1,1,dog,dog,cong,1,413
4,male,meditate,1,2,bus,bus,cong,1,435
4,male,meditate,1,3,bus,NA,neutral,1,400
4,male,meditate,1,4,carrot,NA,neutral,1,408
4,male,meditate,1,5,plate,NA,neutral,0,403
4,male,meditate,1,6,cake,burger,incong,1,341
4,male,meditate,1,7,carrot,spoon,incong,1,328
4,male,meditate,1,8,ball,apple,incong,1,395
4,male,meditate,1,9,ball,ball,cong,1,455
4,male,meditate,1,10,car,NA,neutral,1,395
4,male,meditate,1,11,burger,hammer,incong,1,330
4,male,meditate,1,12,pizza,car,incong,1,436
4,male,meditate,1,13,cat,NA,neutral,1,451
4,male,meditate,1,14,car,car,cong,1,466
4,male,meditate,1,15,horse,cake,incong,0,323
4,male,meditate,1,16,church,tree,incong,1,367
4,male,meditate,1,17,cup,cup,cong,0,443
4,male,meditate,1,18,car,moon,incong,1,328
4,male,meditate,1,19,drill,NA,neutral,0,381
4,male,meditate,1,20,cat,cat,cong,1,439
4,male,meditate,1,21,stapler,stapler,cong,1,405
4,male,meditate,1,22,boat,boat,cong,1,516
4,male,meditate,1,23,horse,NA,neutral,1,376
4,male,meditate,1,24,fork,fork,cong,1,444
4,male,meditate,1,25,boat,NA,neutral,1,359
4,male,meditate,1,26,cat,hat,incong,1,347
4,male,meditate,1,27,burger,NA,neutral,1,405
4,male,meditate,1,28,scissors,lemon,incong,1,474
4,male,meditate,1,29,anchor,church,incong,1,400
4,male,meditate,1,30,scissors,NA,neutral,1,358
4,male,meditate,2,31,burger,burger,cong,1,313
4,male,meditate,2,32,moon,NA,neutral,1,316
4,male,meditate,2,33,drill,cherry,incong,1,512
4,male,meditate,2,34,tree,shoe,incong,1,250
4,male,meditate,2,35,shoe,stapler,incong,1,267
4,male,meditate,2,36,dog,NA,neutral,1,416
4,male,meditate,2,37,fork,NA,neutral,1,326
4,male,meditate,2,38,stapler,NA,neutral,0,405
4,male,meditate,2,39,apple,apple,cong,1,498
4,male,meditate,2,40,orange,orange,cong,1,449
4,male,meditate,2,41,church,NA,neutral,1,378
4,male,meditate,2,42,anchor,anchor,cong,1,394
4,male,meditate,2,43,carrot,carrot,cong,1,347
4,male,meditate,2,44,hammer,NA,neutral,1,413
4,male,meditate,2,45,cup,NA,neutral,1,276
4,male,meditate,2,46,cake,NA,neutral,1,399
4,male,meditate,2,47,cherry,boat,incong,1,291
4,male,meditate,2,48,dog,cup,incong,1,528
4,male,meditate,2,49,lemon,ball,incong,1,269
4,male,meditate,2,50,spoon,spoon,cong,1,375
4,male,meditate,2,51,hammer,fork,incong,1,339
4,male,meditate,2,52,apple,NA,neutral,1,299
4,male,meditate,2,53,plate,star,incong,1,338
4,male,meditate,2,54,moon,moon,cong,1,389
4,male,meditate,2,55,lemon,lemon,cong,1,464
4,male,meditate,2,56,star,star,cong,0,435
4,male,meditate,2,57,cherry,NA,neutral,1,371
4,male,meditate,2,58,star,cat,incong,1,248
4,male,meditate,2,59,church,church,cong,1,377
4,male,meditate,2,60,cup,carrot,incong,1,247
4,male,meditate,3,61,orange,NA,neutral,1,304
4,male,meditate,3,62,star,NA,neutral,1,400
4,male,meditate,3,63,fork,orange,incong,1,285
4,male,meditate,3,64,hat,scissors,incong,1,450
4,male,meditate,3,65,shoe,NA,neutral,1,454
4,male,meditate,3,66,moon,anchor,incong,1,345
4,male,meditate,3,67,bus,horse,incong,1,317
4,male,meditate,3,68,drill,drill,cong,1,331
4,male,meditate,3,69,spoon,drill,incong,1,374
4,male,meditate,3,70,shoe,shoe,cong,1,380
4,male,meditate,3,71,tree,NA,neutral,0,354
4,male,meditate,3,72,lemon,NA,neutral,1,345
4,male,meditate,3,73,boat,dog,incong,1,284
4,male,meditate,3,74,hammer,hammer,cong,1,545
4,male,meditate,3,75,orange,bus,incong,1,311
4,male,meditate,3,76,tree,tree,cong,1,338
4,male,meditate,3,77,cake,cake,cong,1,385
4,male,meditate,3,78,pizza,NA,neutral,0,352
4,male,meditate,3,79,hat,NA,neutral,1,421
4,male,meditate,3,80,anchor,NA,neutral,1,469
4,male,meditate,3,81,plate,plate,cong,1,530
4,male,meditate,3,82,stapler,pizza,incong,1,390
4,male,meditate,3,83,apple,plate,incong,1,245
4,male,meditate,3,84,spoon,NA,neutral,1,460
4,male,meditate,3,85,pizza,pizza,cong,0,332
4,male,meditate,3,86,scissors,scissors,cong,0,435
4,male,meditate,3,87,ball,NA,neutral,1,349
4,male,meditate,3,88,horse,horse,cong,1,395
4,male,meditate,3,89,cherry,cherry,cong,1,512
4,male,meditate,3,90,hat,hat,cong,1,383
5,male,meditate,1,1,moon,bus,incong,1,466
5,male,meditate,1,2,ball,cup,incong,0,416
5,male,meditate,1,3,hammer,hammer,cong,1,428
5,male,meditate,1,4,cat,cat,cong,1,409
5,male,meditate,1,5,hammer,NA,neutral,1,438
5,male,meditate,1,6,bus,cake,incong,1,402
5,male,meditate,1,7,carrot,NA,neutral,1,410
5,male,meditate,1,8,fork,cat,incong,1,401
5,male,meditate,1,9,car,NA,neutral,1,441
5,male,meditate,1,10,cake,cake,cong,0,441
5,male,meditate,1,11,drill,NA,neutral,1,435
5,male,meditate,1,12,anchor,NA,neutral,0,488
5,male,meditate,1,13,cake,orange,incong,1,427
5,male,meditate,1,14,burger,burger,cong,1,484
5,male,meditate,1,15,moon,NA,neutral,1,406
5,male,meditate,1,16,orange,orange,cong,1,462
5,male,meditate,1,17,pizza,boat,incong,1,437
5,male,meditate,1,18,boat,NA,neutral,1,434
5,male,meditate,1,19,horse,horse,cong,1,460
5,male,meditate,1,20,bus,bus,cong,1,473
5,male,meditate,1,21,dog,dog,cong,1,442
5,male,meditate,1,22,horse,spoon,incong,1,441
5,male,meditate,1,23,scissors,pizza,incong,1,424
5,male,meditate,1,24,apple,anchor,incong,1,414
5,male,meditate,1,25,lemon,lemon,cong,1,442
5,male,meditate,1,26,church,lemon,incong,0,435
5,male,meditate,1,27,moon,moon,cong,1,427
5,male,meditate,1,28,cup,NA,neutral,1,421
5,male,meditate,1,29,orange,car,incong,1,389
5,male,meditate,1,30,orange,NA,neutral,1,408
5,male,meditate,2,31,cup,church,incong,0,445
5,male,meditate,2,32,carrot,carrot,cong,1,471
5,male,meditate,2,33,spoon,spoon,cong,1,386
5,male,meditate,2,34,car,moon,incong,1,471
5,male,meditate,2,35,dog,hat,incong,1,317
5,male,meditate,2,36,lemon,NA,neutral,1,498
5,male,meditate,2,37,shoe,NA,neutral,1,437
5,male,meditate,2,38,scissors,NA,neutral,1,444
5,male,meditate,2,39,anchor,anchor,cong,1,493
5,male,meditate,2,40,burger,plate,incong,1,370
5,male,meditate,2,41,hammer,stapler,incong,1,527
5,male,meditate,2,42,tree,NA,neutral,1,394
5,male,meditate,2,43,cup,cup,cong,1,364
5,male,meditate,2,44,ball,NA,neutral,1,355
5,male,meditate,2,45,stapler,NA,neutral,1,412
5,male,meditate,2,46,church,church,cong,1,475
5,male,meditate,2,47,star,star,cong,1,392
5,male,meditate,2,48,stapler,tree,incong,1,538
5,male,meditate,2,49,dog,NA,neutral,1,636
5,male,meditate,2,50,plate,plate,cong,1,361
5,male,meditate,2,51,cake,NA,neutral,1,448
5,male,meditate,2,52,carrot,burger,incong,1,382
5,male,meditate,2,53,cat,NA,neutral,1,536
5,male,meditate,2,54,shoe,shoe,cong,1,544
5,male,meditate,2,55,church,NA,neutral,1,430
5,male,meditate,2,56,plate,NA,neutral,1,405
5,male,meditate,2,57,lemon,drill,incong,1,317
5,male,meditate,2,58,pizza,NA,neutral,1,359
5,male,meditate,2,59,scissors,scissors,cong,1,411
5,male,meditate,2,60,boat,boat,cong,1,484
5,male,meditate,3,61,spoon,NA,neutral,1,456
5,male,meditate,3,62,star,NA,neutral,1,547
5,male,meditate,3,63,ball,ball,cong,1,519
5,male,meditate,3,64,cherry,NA,neutral,1,411
5,male,meditate,3,65,apple,NA,neutral,0,450
5,male,meditate,3,66,cherry,cherry,cong,1,529
5,male,meditate,3,67,stapler,stapler,cong,1,360
5,male,meditate,3,68,fork,fork,cong,1,441
5,male,meditate,3,69,apple,apple,cong,1,428
5,male,meditate,3,70,plate,scissors,incong,1,444
5,male,meditate,3,71,horse,NA,neutral,1,416
5,male,meditate,3,72,boat,dog,incong,1,424
5,male,meditate,3,73,pizza,pizza,cong,1,356
5,male,meditate,3,74,anchor,fork,incong,1,541
5,male,meditate,3,75,burger,NA,neutral,1,464
5,male,meditate,3,76,drill,drill,cong,1,479
5,male,meditate,3,77,spoon,apple,incong,1,469
5,male,meditate,3,78,fork,NA,neutral,1,394
5,male,meditate,3,79,tree,tree,cong,1,400
5,male,meditate,3,80,shoe,star,incong,1,568
5,male,meditate,3,81,hat,cherry,incong,1,601
5,male,meditate,3,82,drill,shoe,incong,1,323
5,male,meditate,3,83,hat,hat,cong,1,376
5,male,meditate,3,84,car,car,cong,0,452
5,male,meditate,3,85,star,horse,incong,1,438
5,male,meditate,3,86,cat,carrot,incong,0,470
5,male,meditate,3,87,cherry,hammer,incong,1,413
5,male,meditate,3,88,tree,ball,incong,1,382
5,male,meditate,3,89,hat,NA,neutral,1,410
5,male,meditate,3,90,bus,NA,neutral,1,443
6,male,meditate,1,1,cat,moon,incong,1,318
6,male,meditate,1,2,boat,NA,neutral,1,388
6,male,meditate,1,3,drill,NA,neutral,1,437
6,male,meditate,1,4,shoe,shoe,cong,1,513
6,male,meditate,1,5,cake,horse,incong,1,302
6,male,meditate,1,6,fork,fork,cong,1,462
6,male,meditate,1,7,hat,NA,neutral,1,407
6,male,meditate,1,8,orange,orange,cong,1,452
6,male,meditate,1,9,apple,NA,neutral,1,366
6,male,meditate,1,10,fork,NA,neutral,1,351
6,male,meditate,1,11,cup,cup,cong,1,423
6,male,meditate,1,12,plate,carrot,incong,1,231
6,male,meditate,1,13,star,star,cong,1,436
6,male,meditate,1,14,carrot,NA,neutral,1,397
6,male,meditate,1,15,dog,dog,cong,0,439
6,male,meditate,1,16,boat,boat,cong,1,503
6,male,meditate,1,17,hat,stapler,incong,1,490
6,male,meditate,1,18,plate,NA,neutral,1,363
6,male,meditate,1,19,burger,tree,incong,1,378
6,male,meditate,1,20,dog,church,incong,1,286
6,male,meditate,1,21,star,NA,neutral,1,380
6,male,meditate,1,22,fork,pizza,incong,1,247
6,male,meditate,1,23,scissors,scissors,cong,1,450
6,male,meditate,1,24,boat,car,incong,1,324
6,male,meditate,1,25,lemon,drill,incong,1,248
6,male,meditate,1,26,drill,fork,incong,1,242
6,male,meditate,1,27,spoon,star,incong,1,257
6,male,meditate,1,28,apple,apple,cong,1,509
6,male,meditate,1,29,cake,NA,neutral,1,374
6,male,meditate,1,30,church,church,cong,1,421
6,male,meditate,2,31,drill,drill,cong,1,361
6,male,meditate,2,32,car,NA,neutral,1,361
6,male,meditate,2,33,hammer,hammer,cong,1,498
6,male,meditate,2,34,cup,hammer,incong,1,168
6,male,meditate,2,35,lemon,lemon,cong,1,337
6,male,meditate,2,36,stapler,stapler,cong,1,390
6,male,meditate,2,37,anchor,NA,neutral,1,448
6,male,meditate,2,38,moon,moon,cong,1,534
6,male,meditate,2,39,car,car,cong,1,452
6,male,meditate,2,40,shoe,NA,neutral,1,474
6,male,meditate,2,41,anchor,bus,incong,1,309
6,male,meditate,2,42,cake,cake,cong,1,393
6,male,meditate,2,43,ball,NA,neutral,1,313
6,male,meditate,2,44,tree,NA,neutral,1,385
6,male,meditate,2,45,hammer,NA,neutral,1,320
6,male,meditate,2,46,anchor,anchor,cong,1,363
6,male,meditate,2,47,scissors,orange,incong,1,452
6,male,meditate,2,48,orange,NA,neutral,1,361
6,male,meditate,2,49,ball,cat,incong,1,246
6,male,meditate,2,50,orange,cake,incong,1,165
6,male,meditate,2,51,horse,NA,neutral,1,277
6,male,meditate,2,52,tree,tree,cong,1,582
6,male,meditate,2,53,cat,NA,neutral,0,282
6,male,meditate,2,54,shoe,ball,incong,1,231
6,male,meditate,2,55,ball,ball,cong,1,551
6,male,meditate,2,56,spoon,NA,neutral,0,368
6,male,meditate,2,57,bus,bus,cong,1,368
6,male,meditate,2,58,cup,NA,neutral,1,307
6,male,meditate,2,59,cherry,NA,neutral,1,431
6,male,meditate,2,60,cherry,dog,incong,1,276
6,male,meditate,3,61,horse,horse,cong,1,347
6,male,meditate,3,62,star,lemon,incong,1,189
6,male,meditate,3,63,spoon,spoon,cong,1,372
6,male,meditate,3,64,burger,burger,cong,1,452
6,male,meditate,3,65,carrot,carrot,cong,1,396
6,male,meditate,3,66,burger,NA,neutral,1,396
6,male,meditate,3,67,apple,shoe,incong,1,207
6,male,meditate,3,68,carrot,plate,incong,1,312
6,male,meditate,3,69,pizza,NA,neutral,1,344
6,male,meditate,3,70,stapler,NA,neutral,0,392
6,male,meditate,3,71,cat,cat,cong,1,357
6,male,meditate,3,72,pizza,pizza,cong,1,548
6,male,meditate,3,73,horse,hat,incong,1,174
6,male,meditate,3,74,car,cherry,incong,1,167
6,male,meditate,3,75,church,NA,neutral,1,434
6,male,meditate,3,76,lemon,NA,neutral,1,263
6,male,meditate,3,77,cherry,cherry,cong,1,388
6,male,meditate,3,78,pizza,anchor,incong,1,199
6,male,meditate,3,79,church,burger,incong,1,216
6,male,meditate,3,80,moon,spoon,incong,1,244
6,male,meditate,3,81,plate,plate,cong,1,494
6,male,meditate,3,82,stapler,apple,incong,1,268
6,male,meditate,3,83,hat,hat,cong,1,534
6,male,meditate,3,84,moon,NA,neutral,1,417
6,male,meditate,3,85,scissors,NA,neutral,1,376
6,male,meditate,3,86,hammer,boat,incong,1,156
6,male,meditate,3,87,dog,NA,neutral,1,424
6,male,meditate,3,88,bus,NA,neutral,1,358
6,male,meditate,3,89,tree,cup,incong,1,325
6,male,meditate,3,90,bus,scissors,incong,1,340
7,male,meditate,1,1,burger,bus,incong,1,722
7,male,meditate,1,2,bus,spoon,incong,1,636
7,male,meditate,1,3,boat,drill,incong,1,650
7,male,meditate,1,4,star,lemon,incong,1,610
7,male,meditate,1,5,pizza,boat,incong,1,606
7,male,meditate,1,6,orange,orange,cong,1,486
7,male,meditate,1,7,tree,NA,neutral,1,630
7,male,meditate,1,8,cat,plate,incong,1,692
7,male,meditate,1,9,spoon,NA,neutral,1,613
7,male,meditate,1,10,boat,NA,neutral,1,644
7,male,meditate,1,11,spoon,star,incong,1,620
7,male,meditate,1,12,cake,hat,incong,1,653
7,male,meditate,1,13,fork,shoe,incong,1,796
7,male,meditate,1,14,anchor,NA,neutral,1,624
7,male,meditate,1,15,moon,NA,neutral,1,581
7,male,meditate,1,16,bus,bus,cong,1,668
7,male,meditate,1,17,pizza,NA,neutral,1,638
7,male,meditate,1,18,cherry,cherry,cong,1,506
7,male,meditate,1,19,car,car,cong,1,492
7,male,meditate,1,20,moon,moon,cong,1,648
7,male,meditate,1,21,hat,horse,incong,1,637
7,male,meditate,1,22,shoe,NA,neutral,1,555
7,male,meditate,1,23,scissors,scissors,cong,1,521
7,male,meditate,1,24,tree,tree,cong,1,497
7,male,meditate,1,25,bus,NA,neutral,1,622
7,male,meditate,1,26,cup,NA,neutral,1,637
7,male,meditate,1,27,star,star,cong,1,474
7,male,meditate,1,28,hat,NA,neutral,1,582
7,male,meditate,1,29,dog,NA,neutral,1,634
7,male,meditate,1,30,orange,anchor,incong,1,600
7,male,meditate,2,31,scissors,fork,incong,1,687
7,male,meditate,2,32,star,NA,neutral,1,547
7,male,meditate,2,33,ball,ball,cong,1,571
7,male,meditate,2,34,boat,boat,cong,1,519
7,male,meditate,2,35,stapler,NA,neutral,1,543
7,male,meditate,2,36,plate,plate,cong,1,465
7,male,meditate,2,37,fork,fork,cong,1,475
7,male,meditate,2,38,ball,NA,neutral,1,579
7,male,meditate,2,39,plate,NA,neutral,1,618
7,male,meditate,2,40,cherry,NA,neutral,1,583
7,male,meditate,2,41,spoon,spoon,cong,0,623
7,male,meditate,2,42,orange,NA,neutral,1,592
7,male,meditate,2,43,lemon,lemon,cong,0,594
7,male,meditate,2,44,plate,cherry,incong,1,687
7,male,meditate,2,45,scissors,NA,neutral,1,570
7,male,meditate,2,46,shoe,shoe,cong,0,538
7,male,meditate,2,47,carrot,carrot,cong,1,467
7,male,meditate,2,48,dog,carrot,incong,1,710
7,male,meditate,2,49,drill,stapler,incong,0,757
7,male,meditate,2,50,hat,hat,cong,1,491
7,male,meditate,2,51,apple,dog,incong,1,607
7,male,meditate,2,52,apple,NA,neutral,1,532
7,male,meditate,2,53,anchor,cup,incong,0,629
7,male,meditate,2,54,horse,horse,cong,1,551
7,male,meditate,2,55,fork,NA,neutral,1,534
7,male,meditate,2,56,car,NA,neutral,1,727
7,male,meditate,2,57,horse,NA,neutral,1,566
7,male,meditate,2,58,cup,cup,cong,1,564
7,male,meditate,2,59,carrot,hammer,incong,1,684
7,male,meditate,2,60,carrot,NA,neutral,1,615
7,male,meditate,3,61,hammer,hammer,cong,1,430
7,male,meditate,3,62,pizza,pizza,cong,1,568
7,male,meditate,3,63,burger,NA,neutral,1,543
7,male,meditate,3,64,cherry,cake,incong,1,658
7,male,meditate,3,65,horse,car,incong,1,723
7,male,meditate,3,66,shoe,apple,incong,1,733
7,male,meditate,3,67,burger,burger,cong,1,468
7,male,meditate,3,68,lemon,NA,neutral,1,658
7,male,meditate,3,69,church,ball,incong,1,618
7,male,meditate,3,70,hammer,NA,neutral,1,564
7,male,meditate,3,71,drill,NA,neutral,1,620
7,male,meditate,3,72,apple,apple,cong,1,543
7,male,meditate,3,73,cake,cake,cong,1,541
7,male,meditate,3,74,moon,moon,cong,1,600
7,male,meditate,3,75,cup,scissors,incong,1,553
7,male,meditate,3,76,cake,NA,neutral,1,565
7,male,meditate,3,77,dog,dog,cong,1,535
7,male,meditate,3,78,cat,cat,cong,1,518
7,male,meditate,3,79,tree,pizza,incong,1,596
7,male,meditate,3,80,church,church,cong,1,602
7,male,meditate,3,81,ball,burger,incong,1,657
7,male,meditate,3,82,church,NA,neutral,1,538
7,male,meditate,3,83,car,church,incong,0,740
7,male,meditate,3,84,cat,NA,neutral,1,518
7,male,meditate,3,85,drill,drill,cong,1,462
7,male,meditate,3,86,stapler,tree,incong,1,709
7,male,meditate,3,87,anchor,anchor,cong,1,490
7,male,meditate,3,88,stapler,stapler,cong,1,623
7,male,meditate,3,89,hammer,cat,incong,1,676
7,male,meditate,3,90,lemon,orange,incong,1,615
8,male,meditate,1,1,fork,fork,cong,1,533
8,male,meditate,1,2,hat,burger,incong,1,583
8,male,meditate,1,3,scissors,pizza,incong,1,617
8,male,meditate,1,4,car,NA,neutral,1,569
8,male,meditate,1,5,cup,orange,incong,1,634
8,male,meditate,1,6,church,NA,neutral,1,586
8,male,meditate,1,7,boat,NA,neutral,1,671
8,male,meditate,1,8,shoe,NA,neutral,1,602
8,male,meditate,1,9,moon,moon,cong,1,675
8,male,meditate,1,10,church,cake,incong,1,761
8,male,meditate,1,11,tree,spoon,incong,1,632
8,male,meditate,1,12,cherry,drill,incong,1,618
8,male,meditate,1,13,church,church,cong,1,514
8,male,meditate,1,14,plate,plate,cong,1,590
8,male,meditate,1,15,boat,boat,cong,1,562
8,male,meditate,1,16,fork,NA,neutral,1,590
8,male,meditate,1,17,apple,bus,incong,1,657
8,male,meditate,1,18,drill,drill,cong,1,552
8,male,meditate,1,19,carrot,carrot,cong,1,529
8,male,meditate,1,20,shoe,car,incong,1,616
8,male,meditate,1,21,apple,apple,cong,1,570
8,male,meditate,1,22,tree,NA,neutral,1,581
8,male,meditate,1,23,anchor,fork,incong,1,642
8,male,meditate,1,24,lemon,lemon,cong,1,546
8,male,meditate,1,25,ball,NA,neutral,1,594
8,male,meditate,1,26,boat,plate,incong,1,628
8,male,meditate,1,27,lemon,stapler,incong,1,663
8,male,meditate,1,28,drill,NA,neutral,1,557
8,male,meditate,1,29,horse,NA,neutral,0,587
8,male,meditate,1,30,car,cat,incong,1,592
8,male,meditate,2,31,pizza,NA,neutral,1,587
8,male,meditate,2,32,moon,NA,neutral,1,502
8,male,meditate,2,33,anchor,NA,neutral,1,640
8,male,meditate,2,34,ball,cherry,incong,1,646
8,male,meditate,2,35,stapler,anchor,incong,1,685
8,male,meditate,2,36,pizza,pizza,cong,1,511
8,male,meditate,2,37,carrot,NA,neutral,1,676
8,male,meditate,2,38,cup,NA,neutral,1,554
8,male,meditate,2,39,scissors,NA,neutral,1,575
8,male,meditate,2,40,ball,ball,cong,1,494
8,male,meditate,2,41,stapler,NA,neutral,1,553
8,male,meditate,2,42,spoon,horse,incong,1,664
8,male,meditate,2,43,lemon,NA,neutral,0,578
8,male,meditate,2,44,cat,ball,incong,1,863
8,male,meditate,2,45,dog,star,incong,1,533
8,male,meditate,2,46,stapler,stapler,cong,1,621
8,male,meditate,2,47,tree,tree,cong,1,454
8,male,meditate,2,48,pizza,boat,incong,1,593
8,male,meditate,2,49,star,scissors,incong,1,706
8,male,meditate,2,50,cherry,cherry,cong,1,540
8,male,meditate,2,51,bus,bus,cong,1,506
8,male,meditate,2,52,cake,NA,neutral,1,608
8,male,meditate,2,53,car,car,cong,0,470
8,male,meditate,2,54,spoon,NA,neutral,1,515
8,male,meditate,2,55,star,NA,neutral,1,517
8,male,meditate,2,56,orange,NA,neutral,1,599
8,male,meditate,2,57,fork,church,incong,1,611
8,male,meditate,2,58,hammer,NA,neutral,1,563
8,male,meditate,2,59,burger,NA,neutral,1,715
8,male,meditate,2,60,star,star,cong,1,498
8,male,meditate,3,61,plate,apple,incong,1,579
8,male,meditate,3,62,orange,dog,incong,1,643
8,male,meditate,3,63,shoe,shoe,cong,1,630
8,male,meditate,3,64,hammer,hammer,cong,1,593
8,male,meditate,3,65,horse,hat,incong,1,609
8,male,meditate,3,66,carrot,carrot,cong,0,594
8,male,meditate,3,67,bus,cup,incong,1,747
8,male,meditate,3,68,dog,NA,neutral,1,595
8,male,meditate,3,69,cake,tree,incong,1,688
8,male,meditate,3,70,dog,dog,cong,1,662
8,male,meditate,3,71,cat,cat,cong,1,466
8,male,meditate,3,72,plate,NA,neutral,1,612
8,male,meditate,3,73,anchor,anchor,cong,1,545
8,male,meditate,3,74,apple,NA,neutral,1,589
8,male,meditate,3,75,bus,NA,neutral,1,550
8,male,meditate,3,76,orange,orange,cong,1,466
8,male,meditate,3,77,horse,horse,cong,0,468
8,male,meditate,3,78,burger,hammer,incong,0,667
8,male,meditate,3,79,cake,cake,cong,1,611
8,male,meditate,3,80,drill,lemon,incong,1,697
8,male,meditate,3,81,spoon,spoon,cong,1,529
8,male,meditate,3,82,cup,cup,cong,1,654
8,male,meditate,3,83,scissors,scissors,cong,1,524
8,male,meditate,3,84,hat,hat,cong,1,604
8,male,meditate,3,85,hat,NA,neutral,1,624
8,male,meditate,3,86,cat,NA,neutral,0,549
8,male,meditate,3,87,moon,moon,cong,1,544
8,male,meditate,3,88,burger,burger,cong,1,634
8,male,meditate,3,89,hammer,shoe,incong,0,590
8,male,meditate,3,90,cherry,NA,neutral,1,549
9,male,meditate,1,1,apple,ball,incong,1,395
9,male,meditate,1,2,cherry,moon,incong,1,332
9,male,meditate,1,3,star,star,cong,1,534
9,male,meditate,1,4,hat,NA,neutral,1,445
9,male,meditate,1,5,ball,NA,neutral,1,395
9,male,meditate,1,6,church,church,cong,1,466
9,male,meditate,1,7,dog,dog,cong,1,504
9,male,meditate,1,8,plate,plate,cong,1,485
9,male,meditate,1,9,horse,fork,incong,1,355
9,male,meditate,1,10,cat,drill,incong,1,262
9,male,meditate,1,11,hat,carrot,incong,1,313
9,male,meditate,1,12,orange,NA,neutral,1,488
9,male,meditate,1,13,drill,NA,neutral,1,388
9,male,meditate,1,14,lemon,NA,neutral,1,397
9,male,meditate,1,15,cup,cup,cong,1,504
9,male,meditate,1,16,cat,NA,neutral,1,365
9,male,meditate,1,17,apple,apple,cong,1,477
9,male,meditate,1,18,shoe,lemon,incong,1,345
9,male,meditate,1,19,hammer,dog,incong,1,262
9,male,meditate,1,20,dog,NA,neutral,1,381
9,male,meditate,1,21,boat,boat,cong,1,468
9,male,meditate,1,22,orange,orange,cong,1,452
9,male,meditate,1,23,apple,NA,neutral,1,367
9,male,meditate,1,24,stapler,stapler,cong,1,500
9,male,meditate,1,25,anchor,NA,neutral,1,422
9,male,meditate,1,26,pizza,NA,neutral,0,374
9,male,meditate,1,27,ball,burger,incong,1,297
9,male,meditate,1,28,spoon,spoon,cong,1,501
9,male,meditate,1,29,car,cat,incong,0,277
9,male,meditate,1,30,pizza,pizza,cong,1,476
9,male,meditate,2,31,anchor,anchor,cong,1,552
9,male,meditate,2,32,anchor,pizza,incong,1,325
9,male,meditate,2,33,fork,hat,incong,1,327
9,male,meditate,2,34,bus,NA,neutral,1,378
9,male,meditate,2,35,dog,scissors,incong,1,370
9,male,meditate,2,36,carrot,star,incong,1,376
9,male,meditate,2,37,cake,cake,cong,1,624
9,male,meditate,2,38,star,cake,incong,1,313
9,male,meditate,2,39,carrot,carrot,cong,1,560
9,male,meditate,2,40,cherry,NA,neutral,1,357
9,male,meditate,2,41,drill,drill,cong,1,475
9,male,meditate,2,42,ball,ball,cong,1,501
9,male,meditate,2,43,moon,hammer,incong,1,235
9,male,meditate,2,44,scissors,anchor,incong,1,460
9,male,meditate,2,45,fork,NA,neutral,1,385
9,male,meditate,2,46,cake,plate,incong,1,343
9,male,meditate,2,47,cup,stapler,incong,1,325
9,male,meditate,2,48,bus,horse,incong,1,321
9,male,meditate,2,49,cake,NA,neutral,1,456
9,male,meditate,2,50,shoe,shoe,cong,1,572
9,male,meditate,2,51,car,car,cong,1,535
9,male,meditate,2,52,carrot,NA,neutral,1,544
9,male,meditate,2,53,bus,bus,cong,1,480
9,male,meditate,2,54,cup,NA,neutral,1,466
9,male,meditate,2,55,orange,boat,incong,1,280
9,male,meditate,2,56,tree,cup,incong,1,251
9,male,meditate,2,57,stapler,church,incong,1,230
9,male,meditate,2,58,stapler,NA,neutral,1,342
9,male,meditate,2,59,plate,orange,incong,1,359
9,male,meditate,2,60,scissors,scissors,cong,1,550
9,male,meditate,3,61,hammer,hammer,cong,1,509
9,male,meditate,3,62,tree,NA,neutral,1,473
9,male,meditate,3,63,star,NA,neutral,1,437
9,male,meditate,3,64,pizza,apple,incong,1,258
9,male,meditate,3,65,moon,moon,cong,1,672
9,male,meditate,3,66,shoe,NA,neutral,1,470
9,male,meditate,3,67,scissors,NA,neutral,1,406
9,male,meditate,3,68,lemon,lemon,cong,1,618
9,male,meditate,3,69,lemon,shoe,incong,1,375
9,male,meditate,3,70,burger,NA,neutral,1,620
9,male,meditate,3,71,burger,bus,incong,1,305
9,male,meditate,3,72,hammer,NA,neutral,1,396
9,male,meditate,3,73,cherry,cherry,cong,1,470
9,male,meditate,3,74,burger,burger,cong,1,514
9,male,meditate,3,75,horse,horse,cong,1,491
9,male,meditate,3,76,church,NA,neutral,1,466
9,male,meditate,3,77,moon,NA,neutral,1,378
9,male,meditate,3,78,drill,cherry,incong,1,340
9,male,meditate,3,79,cat,cat,cong,1,471
9,male,meditate,3,80,church,car,incong,1,456
9,male,meditate,3,81,boat,spoon,incong,1,347
9,male,meditate,3,82,car,NA,neutral,1,416
9,male,meditate,3,83,plate,NA,neutral,1,521
9,male,meditate,3,84,fork,fork,cong,1,495
9,male,meditate,3,85,spoon,tree,incong,1,518
9,male,meditate,3,86,boat,NA,neutral,1,402
9,male,meditate,3,87,hat,hat,cong,1,485
9,male,meditate,3,88,tree,tree,cong,1,478
9,male,meditate,3,89,spoon,NA,neutral,1,484
9,male,meditate,3,90,horse,NA,neutral,1,429
10,male,meditate,1,1,tree,star,incong,1,551
10,male,meditate,1,2,bus,bus,cong,1,411
10,male,meditate,1,3,hat,NA,neutral,1,455
10,male,meditate,1,4,stapler,NA,neutral,1,505
10,male,meditate,1,5,lemon,NA,neutral,1,463
10,male,meditate,1,6,burger,burger,cong,1,429
10,male,meditate,1,7,boat,boat,cong,1,470
10,male,meditate,1,8,cat,cat,cong,1,440
10,male,meditate,1,9,cake,NA,neutral,1,564
10,male,meditate,1,10,spoon,apple,incong,1,576
10,male,meditate,1,11,church,church,cong,1,533
10,male,meditate,1,12,stapler,stapler,cong,1,408
10,male,meditate,1,13,horse,NA,neutral,1,491
10,male,meditate,1,14,boat,cat,incong,0,635
10,male,meditate,1,15,orange,orange,cong,1,409
10,male,meditate,1,16,star,spoon,incong,1,615
10,male,meditate,1,17,cat,NA,neutral,1,475
10,male,meditate,1,18,drill,drill,cong,1,494
10,male,meditate,1,19,fork,fork,cong,1,405
10,male,meditate,1,20,fork,fork,cong,1,519
10,male,meditate,1,21,plate,plate,cong,1,421
10,male,meditate,1,22,church,cup,incong,1,571
10,male,meditate,1,23,tree,NA,neutral,1,486
10,male,meditate,1,24,apple,cake,incong,1,568
10,male,meditate,1,25,cake,cake,cong,1,480
10,male,meditate,1,26,bus,NA,neutral,1,459
10,male,meditate,1,27,carrot,NA,neutral,1,596
10,male,meditate,1,28,boat,NA,neutral,1,451
10,male,meditate,1,29,hat,car,incong,1,518
10,male,meditate,1,30,car,stapler,incong,1,499
10,male,meditate,2,31,anchor,pizza,incong,1,524
10,male,meditate,2,32,drill,NA,neutral,1,471
10,male,meditate,2,33,scissors,scissors,cong,1,355
10,male,meditate,2,34,pizza,pizza,cong,1,479
10,male,meditate,2,35,cup,anchor,incong,1,475
10,male,meditate,2,36,shoe,scissors,incong,1,467
10,male,meditate,2,37,bus,ball,incong,1,511
10,male,meditate,2,38,shoe,shoe,cong,1,437
10,male,meditate,2,39,pizza,NA,neutral,1,409
10,male,meditate,2,40,cake,plate,incong,1,526
10,male,meditate,2,41,moon,shoe,incong,1,622
10,male,meditate,2,42,cherry,NA,neutral,1,594
10,male,meditate,2,43,horse,horse,cong,1,476
10,male,meditate,2,44,cup,cup,cong,1,404
10,male,meditate,2,45,ball,NA,neutral,1,465
10,male,meditate,2,46,scissors,bus,incong,1,572
10,male,meditate,2,47,ball,ball,cong,1,421
10,male,meditate,2,48,hammer,NA,neutral,1,472
10,male,meditate,2,49,fork,NA,neutral,1,487
10,male,meditate,2,50,lemon,lemon,cong,1,322
10,male,meditate,2,51,dog,NA,neutral,1,433
10,male,meditate,2,52,spoon,NA,neutral,1,455
10,male,meditate,2,53,tree,tree,cong,1,390
10,male,meditate,2,54,car,car,cong,1,401
10,male,meditate,2,55,orange,church,incong,1,407
10,male,meditate,2,56,cat,boat,incong,1,611
10,male,meditate,2,57,apple,apple,cong,1,445
10,male,meditate,2,58,church,NA,neutral,1,505
10,male,meditate,2,59,hammer,hammer,cong,1,401
10,male,meditate,2,60,orange,NA,neutral,1,450
10,male,meditate,3,61,moon,moon,cong,1,618
10,male,meditate,3,62,apple,NA,neutral,1,629
10,male,meditate,3,63,carrot,burger,incong,1,541
10,male,meditate,3,64,drill,hat,incong,1,533
10,male,meditate,3,65,scissors,NA,neutral,1,546
10,male,meditate,3,66,plate,horse,incong,1,565
10,male,meditate,3,67,cup,NA,neutral,1,424
10,male,meditate,3,68,burger,orange,incong,1,562
10,male,meditate,3,69,hat,hat,cong,1,410
10,male,meditate,3,70,carrot,carrot,cong,1,317
10,male,meditate,3,71,star,star,cong,1,359
10,male,meditate,3,72,hammer,lemon,incong,1,590
10,male,meditate,3,73,car,NA,neutral,1,460
10,male,meditate,3,74,star,NA,neutral,1,484
10,male,meditate,3,75,pizza,moon,incong,1,488
10,male,meditate,3,76,dog,dog,cong,1,563
10,male,meditate,3,77,lemon,hammer,incong,1,574
10,male,meditate,3,78,shoe,NA,neutral,1,441
10,male,meditate,3,79,anchor,anchor,cong,1,434
10,male,meditate,3,80,horse,tree,incong,1,712
10,male,meditate,3,81,spoon,spoon,cong,1,420
10,male,meditate,3,82,dog,carrot,incong,1,511
10,male,meditate,3,83,plate,NA,neutral,1,511
10,male,meditate,3,84,anchor,NA,neutral,1,410
10,male,meditate,3,85,ball,drill,incong,1,556
10,male,meditate,3,86,cherry,cherry,cong,1,330
10,male,meditate,3,87,moon,NA,neutral,1,399
10,male,meditate,3,88,burger,NA,neutral,1,398
10,male,meditate,3,89,stapler,dog,incong,1,542
10,male,meditate,3,90,cherry,cherry,cong,1,485
11,male,meditate,1,1,spoon,orange,incong,1,399
11,male,meditate,1,2,horse,NA,neutral,1,475
11,male,meditate,1,3,scissors,NA,neutral,1,443
11,male,meditate,1,4,cup,cup,cong,1,458
11,male,meditate,1,5,orange,orange,cong,1,473
11,male,meditate,1,6,lemon,pizza,incong,1,472
11,male,meditate,1,7,anchor,carrot,incong,1,426
11,male,meditate,1,8,tree,tree,cong,1,516
11,male,meditate,1,9,plate,moon,incong,1,429
11,male,meditate,1,10,cake,cherry,incong,1,478
11,male,meditate,1,11,church,NA,neutral,1,496
11,male,meditate,1,12,burger,church,incong,1,492
11,male,meditate,1,13,shoe,shoe,cong,1,485
11,male,meditate,1,14,carrot,plate,incong,1,427
11,male,meditate,1,15,ball,ball,cong,1,619
11,male,meditate,1,16,boat,NA,neutral,1,483
11,male,meditate,1,17,hat,NA,neutral,1,515
11,male,meditate,1,18,cat,cat,cong,1,462
11,male,meditate,1,19,hammer,NA,neutral,1,435
11,male,meditate,1,20,shoe,dog,incong,1,405
11,male,meditate,1,21,car,car,cong,1,464
11,male,meditate,1,22,spoon,spoon,cong,1,486
11,male,meditate,1,23,stapler,stapler,cong,1,452
11,male,meditate,1,24,drill,tree,incong,1,488
11,male,meditate,1,25,anchor,NA,neutral,1,433
11,male,meditate,1,26,drill,NA,neutral,1,534
11,male,meditate,1,27,plate,NA,neutral,1,528
11,male,meditate,1,28,boat,boat,cong,1,548
11,male,meditate,1,29,cup,NA,neutral,1,442
11,male,meditate,1,30,church,stapler,incong,1,470
11,male,meditate,2,31,moon,NA,neutral,1,485
11,male,meditate,2,32,cake,NA,neutral,1,539
11,male,meditate,2,33,star,drill,incong,1,598
11,male,meditate,2,34,shoe,NA,neutral,1,637
11,male,meditate,2,35,cherry,NA,neutral,1,711
11,male,meditate,2,36,drill,drill,cong,1,523
11,male,meditate,2,37,lemon,lemon,cong,1,543
11,male,meditate,2,38,apple,anchor,incong,1,389
11,male,meditate,2,39,ball,fork,incong,1,501
11,male,meditate,2,40,scissors,cat,incong,1,448
11,male,meditate,2,41,pizza,pizza,cong,1,514
11,male,meditate,2,42,apple,apple,cong,1,562
11,male,meditate,2,43,burger,NA,neutral,1,494
11,male,meditate,2,44,moon,lemon,incong,1,548
11,male,meditate,2,45,hat,scissors,incong,1,398
11,male,meditate,2,46,cherry,hammer,incong,1,456
11,male,meditate,2,47,cup,car,incong,1,511
11,male,meditate,2,48,cat,spoon,incong,1,517
11,male,meditate,2,49,star,star,cong,1,603
11,male,meditate,2,50,tree,burger,incong,1,656
11,male,meditate,2,51,horse,ball,incong,1,482
11,male,meditate,2,52,carrot,carrot,cong,1,605
11,male,meditate,2,53,orange,NA,neutral,1,555
11,male,meditate,2,54,car,hat,incong,1,490
11,male,meditate,2,55,dog,dog,cong,1,569
11,male,meditate,2,56,cherry,cherry,cong,1,613
11,male,meditate,2,57,fork,fork,cong,1,474
11,male,meditate,2,58,hammer,boat,incong,1,442
11,male,meditate,2,59,star,NA,neutral,1,542
11,male,meditate,2,60,burger,burger,cong,1,447
11,male,meditate,3,61,cat,NA,neutral,1,543
11,male,meditate,3,62,apple,NA,neutral,1,487
11,male,meditate,3,63,church,church,cong,1,465
11,male,meditate,3,64,boat,horse,incong,1,581
11,male,meditate,3,65,anchor,anchor,cong,1,444
11,male,meditate,3,66,horse,horse,cong,1,548
11,male,meditate,3,67,stapler,NA,neutral,1,562
11,male,meditate,3,68,carrot,NA,neutral,1,600
11,male,meditate,3,69,plate,plate,cong,1,546
11,male,meditate,3,70,bus,bus,cong,1,600
11,male,meditate,3,71,stapler,bus,incong,1,483
11,male,meditate,3,72,hammer,hammer,cong,1,489
11,male,meditate,3,73,car,NA,neutral,1,467
11,male,meditate,3,74,pizza,cake,incong,1,559
11,male,meditate,3,75,tree,NA,neutral,1,441
11,male,meditate,3,76,fork,apple,incong,1,518
11,male,meditate,3,77,bus,NA,neutral,1,528
11,male,meditate,3,78,ball,NA,neutral,1,530
11,male,meditate,3,79,bus,cup,incong,1,574
11,male,meditate,3,80,moon,moon,cong,1,471
11,male,meditate,3,81,dog,shoe,incong,1,432
11,male,meditate,3,82,hat,hat,cong,1,527
11,male,meditate,3,83,orange,star,incong,1,486
11,male,meditate,3,84,spoon,NA,neutral,1,589
11,male,meditate,3,85,dog,NA,neutral,1,588
11,male,meditate,3,86,pizza,NA,neutral,1,544
11,male,meditate,3,87,lemon,NA,neutral,1,550
11,male,meditate,3,88,cake,cake,cong,1,479
11,male,meditate,3,89,fork,NA,neutral,1,456
11,male,meditate,3,90,scissors,scissors,cong,1,466
12,male,meditate,1,1,hat,hat,cong,1,526
12,male,meditate,1,2,cake,cake,cong,1,528
12,male,meditate,1,3,hat,NA,neutral,1,509
12,male,meditate,1,4,shoe,shoe,cong,1,498
12,male,meditate,1,5,fork,NA,neutral,1,553
12,male,meditate,1,6,spoon,spoon,cong,1,562
12,male,meditate,1,7,lemon,NA,neutral,1,485
12,male,meditate,1,8,car,ball,incong,1,504
12,male,meditate,1,9,dog,NA,neutral,1,514
12,male,meditate,1,10,church,burger,incong,1,469
12,male,meditate,1,11,stapler,NA,neutral,1,524
12,male,meditate,1,12,burger,NA,neutral,1,576
12,male,meditate,1,13,bus,NA,neutral,1,561
12,male,meditate,1,14,drill,drill,cong,1,521
12,male,meditate,1,15,car,car,cong,1,485
12,male,meditate,1,16,moon,NA,neutral,1,480
12,male,meditate,1,17,cat,pizza,incong,1,472
12,male,meditate,1,18,hammer,hammer,cong,1,553
12,male,meditate,1,19,shoe,dog,incong,1,526
12,male,meditate,1,20,bus,star,incong,1,554
12,male,meditate,1,21,cup,NA,neutral,1,550
12,male,meditate,1,22,scissors,scissors,cong,1,571
12,male,meditate,1,23,car,NA,neutral,1,542
12,male,meditate,1,24,fork,fork,cong,1,501
12,male,meditate,1,25,horse,horse,cong,1,491
12,male,meditate,1,26,hammer,NA,neutral,1,503
12,male,meditate,1,27,carrot,car,incong,1,517
12,male,meditate,1,28,pizza,NA,neutral,1,552
12,male,meditate,1,29,fork,cherry,incong,0,510
12,male,meditate,1,30,orange,NA,neutral,1,549
12,male,meditate,2,31,stapler,stapler,cong,1,471
12,male,meditate,2,32,cherry,NA,neutral,1,468
12,male,meditate,2,33,scissors,hammer,incong,1,425
12,male,meditate,2,34,cherry,cherry,cong,1,593
12,male,meditate,2,35,spoon,NA,neutral,1,452
12,male,meditate,2,36,anchor,anchor,cong,1,734
12,male,meditate,2,37,boat,tree,incong,1,401
12,male,meditate,2,38,carrot,carrot,cong,1,488
12,male,meditate,2,39,apple,boat,incong,1,519
12,male,meditate,2,40,tree,NA,neutral,0,393
12,male,meditate,2,41,apple,NA,neutral,1,478
12,male,meditate,2,42,cat,cat,cong,1,565
12,male,meditate,2,43,ball,ball,cong,1,475
12,male,meditate,2,44,drill,church,incong,1,439
12,male,meditate,2,45,cup,cup,cong,0,617
12,male,meditate,2,46,pizza,pizza,cong,1,461
12,male,meditate,2,47,carrot,NA,neutral,1,555
12,male,meditate,2,48,lemon,stapler,incong,1,466
12,male,meditate,2,49,plate,plate,cong,1,508
12,male,meditate,2,50,shoe,NA,neutral,1,519
12,male,meditate,2,51,apple,apple,cong,0,691
12,male,meditate,2,52,pizza,moon,incong,1,487
12,male,meditate,2,53,tree,hat,incong,1,456
12,male,meditate,2,54,horse,apple,incong,1,524
12,male,meditate,2,55,star,NA,neutral,1,497
12,male,meditate,2,56,lemon,lemon,cong,1,400
12,male,meditate,2,57,stapler,carrot,incong,1,463
12,male,meditate,2,58,plate,fork,incong,1,405
12,male,meditate,2,59,hat,bus,incong,1,431
12,male,meditate,2,60,boat,NA,neutral,1,452
12,male,meditate,3,61,bus,bus,cong,1,474
12,male,meditate,3,62,spoon,cup,incong,1,421
12,male,meditate,3,63,church,NA,neutral,1,399
12,male,meditate,3,64,cup,spoon,incong,1,452
12,male,meditate,3,65,orange,orange,cong,1,528
12,male,meditate,3,66,burger,plate,incong,1,460
12,male,meditate,3,67,boat,boat,cong,1,395
12,male,meditate,3,68,moon,moon,cong,1,425
12,male,meditate,3,69,moon,cake,incong,1,473
12,male,meditate,3,70,ball,shoe,incong,1,517
12,male,meditate,3,71,church,church,cong,1,482
12,male,meditate,3,72,burger,burger,cong,1,543
12,male,meditate,3,73,tree,tree,cong,1,542
12,male,meditate,3,74,plate,NA,neutral,1,503
12,male,meditate,3,75,anchor,anchor,cong,1,420
12,male,meditate,3,76,orange,scissors,incong,1,484
12,male,meditate,3,77,hammer,drill,incong,1,406
12,male,meditate,3,78,star,horse,incong,1,464
12,male,meditate,3,79,anchor,NA,neutral,1,488
12,male,meditate,3,80,scissors,NA,neutral,1,481
12,male,meditate,3,81,star,star,cong,1,441
12,male,meditate,3,82,cake,NA,neutral,1,439
12,male,meditate,3,83,dog,dog,cong,1,396
12,male,meditate,3,84,cherry,cat,incong,1,410
12,male,meditate,3,85,dog,orange,incong,0,440
12,male,meditate,3,86,horse,NA,neutral,1,477
12,male,meditate,3,87,ball,NA,neutral,1,469
12,male,meditate,3,88,drill,NA,neutral,1,520
12,male,meditate,3,89,cat,NA,neutral,1,426
12,male,meditate,3,90,cake,lemon,incong,1,425
13,male,meditate,1,1,spoon,NA,neutral,1,472
13,male,meditate,1,2,hammer,scissors,incong,1,312
13,male,meditate,1,3,burger,NA,neutral,1,409
13,male,meditate,1,4,plate,NA,neutral,1,405
13,male,meditate,1,5,orange,ball,incong,1,303
13,male,meditate,1,6,boat,boat,cong,1,572
13,male,meditate,1,7,stapler,star,incong,1,310
13,male,meditate,1,8,plate,fork,incong,1,318
13,male,meditate,1,9,cat,cat,cong,1,467
13,male,meditate,1,10,church,church,cong,1,507
13,male,meditate,1,11,drill,drill,cong,0,448
13,male,meditate,1,12,burger,anchor,incong,1,332
13,male,meditate,1,13,shoe,shoe,cong,1,456
13,male,meditate,1,14,carrot,orange,incong,1,307
13,male,meditate,1,15,pizza,NA,neutral,1,481
13,male,meditate,1,16,fork,cup,incong,1,269
13,male,meditate,1,17,cake,moon,incong,1,392
13,male,meditate,1,18,star,star,cong,1,514
13,male,meditate,1,19,ball,ball,cong,1,609
13,male,meditate,1,20,dog,NA,neutral,1,365
13,male,meditate,1,21,shoe,stapler,incong,1,343
13,male,meditate,1,22,scissors,NA,neutral,1,443
13,male,meditate,1,23,cup,plate,incong,1,306
13,male,meditate,1,24,horse,spoon,incong,0,365
13,male,meditate,1,25,tree,tree,cong,1,566
13,male,meditate,1,26,dog,dog,cong,1,619
13,male,meditate,1,27,anchor,NA,neutral,1,394
13,male,meditate,1,28,cat,NA,neutral,1,422
13,male,meditate,1,29,car,NA,neutral,1,380
13,male,meditate,1,30,cherry,burger,incong,1,302
13,male,meditate,2,31,orange,NA,neutral,1,410
13,male,meditate,2,32,tree,NA,neutral,1,530
13,male,meditate,2,33,apple,church,incong,1,266
13,male,meditate,2,34,stapler,stapler,cong,1,585
13,male,meditate,2,35,drill,horse,incong,1,329
13,male,meditate,2,36,orange,orange,cong,0,655
13,male,meditate,2,37,star,shoe,incong,1,283
13,male,meditate,2,38,burger,burger,cong,1,508
13,male,meditate,2,39,lemon,NA,neutral,0,447
13,male,meditate,2,40,moon,moon,cong,1,404
13,male,meditate,2,41,ball,hammer,incong,1,291
13,male,meditate,2,42,shoe,NA,neutral,1,411
13,male,meditate,2,43,spoon,lemon,incong,1,407
13,male,meditate,2,44,fork,NA,neutral,1,471
13,male,meditate,2,45,fork,fork,cong,1,525
13,male,meditate,2,46,cat,pizza,incong,1,264
13,male,meditate,2,47,scissors,scissors,cong,0,564
13,male,meditate,2,48,star,NA,neutral,1,505
13,male,meditate,2,49,stapler,NA,neutral,1,641
13,male,meditate,2,50,dog,drill,incong,1,277
13,male,meditate,2,51,bus,bus,cong,1,511
13,male,meditate,2,52,church,cherry,incong,1,236
13,male,meditate,2,53,hat,NA,neutral,1,448
13,male,meditate,2,54,boat,apple,incong,1,361
13,male,meditate,2,55,anchor,boat,incong,1,247
13,male,meditate,2,56,scissors,dog,incong,1,307
13,male,meditate,2,57,car,tree,incong,1,289
13,male,meditate,2,58,ball,NA,neutral,1,537
13,male,meditate,2,59,hammer,NA,neutral,1,372
13,male,meditate,2,60,cup,NA,neutral,1,334
13,male,meditate,3,61,horse,horse,cong,1,670
13,male,meditate,3,62,anchor,anchor,cong,1,486
13,male,meditate,3,63,hammer,hammer,cong,1,538
13,male,meditate,3,64,moon,NA,neutral,1,353
13,male,meditate,3,65,carrot,carrot,cong,1,444
13,male,meditate,3,66,cake,NA,neutral,1,440
13,male,meditate,3,67,tree,cake,incong,1,273
13,male,meditate,3,68,apple,NA,neutral,1,449
13,male,meditate,3,69,cake,cake,cong,1,484
13,male,meditate,3,70,cherry,NA,neutral,1,339
13,male,meditate,3,71,bus,NA,neutral,1,398
13,male,meditate,3,72,hat,bus,incong,1,256
13,male,meditate,3,73,carrot,NA,neutral,1,364
13,male,meditate,3,74,lemon,carrot,incong,1,335
13,male,meditate,3,75,apple,apple,cong,1,480
13,male,meditate,3,76,pizza,pizza,cong,1,498
13,male,meditate,3,77,cup,cup,cong,1,598
13,male,meditate,3,78,bus,cat,incong,1,337
13,male,meditate,3,79,drill,NA,neutral,1,496
13,male,meditate,3,80,boat,NA,neutral,1,355
13,male,meditate,3,81,car,car,cong,1,529
13,male,meditate,3,82,moon,car,incong,0,264
13,male,meditate,3,83,lemon,lemon,cong,1,529
13,male,meditate,3,84,spoon,spoon,cong,1,408
13,male,meditate,3,85,horse,NA,neutral,1,344
13,male,meditate,3,86,plate,plate,cong,1,445
13,male,meditate,3,87,church,NA,neutral,1,479
13,male,meditate,3,88,cherry,cherry,cong,1,525
13,male,meditate,3,89,pizza,hat,incong,1,329
13,male,meditate,3,90,hat,hat,cong,1,432
14,male,meditate,1,1,orange,orange,cong,1,445
14,male,meditate,1,2,hammer,hammer,cong,1,456
14,male,meditate,1,3,star,NA,neutral,1,405
14,male,meditate,1,4,burger,burger,cong,1,410
14,male,meditate,1,5,ball,shoe,incong,1,356
14,male,meditate,1,6,lemon,NA,neutral,1,402
14,male,meditate,1,7,cake,NA,neutral,0,448
14,male,meditate,1,8,star,star,cong,1,491
14,male,meditate,1,9,shoe,car,incong,1,378
14,male,meditate,1,10,carrot,carrot,cong,1,437
14,male,meditate,1,11,pizza,NA,neutral,1,380
14,male,meditate,1,12,hat,NA,neutral,1,433
14,male,meditate,1,13,burger,NA,neutral,1,527
14,male,meditate,1,14,carrot,stapler,incong,1,384
14,male,meditate,1,15,fork,drill,incong,1,360
14,male,meditate,1,16,church,church,cong,1,417
14,male,meditate,1,17,anchor,lemon,incong,1,445
14,male,meditate,1,18,hammer,NA,neutral,1,484
14,male,meditate,1,19,boat,NA,neutral,1,408
14,male,meditate,1,20,anchor,NA,neutral,1,411
14,male,meditate,1,21,moon,ball,incong,1,354
14,male,meditate,1,22,orange,moon,incong,1,419
14,male,meditate,1,23,tree,tree,cong,1,513
14,male,meditate,1,24,horse,horse,cong,1,479
14,male,meditate,1,25,stapler,stapler,cong,1,525
14,male,meditate,1,26,orange,NA,neutral,1,385
14,male,meditate,1,27,car,car,cong,1,424
14,male,meditate,1,28,lemon,apple,incong,1,365
14,male,meditate,1,29,church,hat,incong,1,363
14,male,meditate,1,30,fork,NA,neutral,1,519
14,male,meditate,2,31,horse,fork,incong,1,281
14,male,meditate,2,32,scissors,orange,incong,1,341
14,male,meditate,2,33,lemon,lemon,cong,1,386
14,male,meditate,2,34,bus,scissors,incong,1,370
14,male,meditate,2,35,star,carrot,incong,1,598
14,male,meditate,2,36,cherry,cherry,cong,1,491
14,male,meditate,2,37,plate,plate,cong,1,452
14,male,meditate,2,38,shoe,shoe,cong,1,470
14,male,meditate,2,39,hat,plate,incong,1,350
14,male,meditate,2,40,drill,star,incong,1,305
14,male,meditate,2,41,carrot,NA,neutral,1,384
14,male,meditate,2,42,car,cup,incong,1,459
14,male,meditate,2,43,spoon,spoon,cong,1,509
14,male,meditate,2,44,drill,drill,cong,1,307
14,male,meditate,2,45,apple,apple,cong,1,372
14,male,meditate,2,46,shoe,NA,neutral,1,307
14,male,meditate,2,47,pizza,pizza,cong,1,406
14,male,meditate,2,48,stapler,NA,neutral,1,356
14,male,meditate,2,49,cake,cake,cong,1,368
14,male,meditate,2,50,cake,cake,cong,1,406
14,male,meditate,2,51,scissors,scissors,cong,1,401
14,male,meditate,2,52,dog,dog,cong,1,391
14,male,meditate,2,53,car,NA,neutral,1,336
14,male,meditate,2,54,ball,NA,neutral,1,435
14,male,meditate,2,55,spoon,cherry,incong,1,287
14,male,meditate,2,56,drill,NA,neutral,1,428
14,male,meditate,2,57,plate,tree,incong,1,332
14,male,meditate,2,58,burger,burger,cong,1,342
14,male,meditate,2,59,hat,hat,cong,1,316
14,male,meditate,2,60,moon,moon,cong,1,414
14,male,meditate,3,61,dog,NA,neutral,1,352
14,male,meditate,3,62,cherry,NA,neutral,1,458
14,male,meditate,3,63,horse,NA,neutral,1,358
14,male,meditate,3,64,hammer,anchor,incong,1,321
14,male,meditate,3,65,stapler,boat,incong,1,273
14,male,meditate,3,66,plate,NA,neutral,1,288
14,male,meditate,3,67,tree,horse,incong,1,261
14,male,meditate,3,68,tree,NA,neutral,1,373
14,male,meditate,3,69,spoon,NA,neutral,1,328
14,male,meditate,3,70,cat,NA,neutral,1,308
14,male,meditate,3,71,bus,bus,cong,1,479
14,male,meditate,3,72,cup,cup,cong,1,359
14,male,meditate,3,73,apple,NA,neutral,0,400
14,male,meditate,3,74,anchor,anchor,cong,1,341
14,male,meditate,3,75,moon,NA,neutral,1,448
14,male,meditate,3,76,cup,NA,neutral,1,383
14,male,meditate,3,77,boat,dog,incong,1,438
14,male,meditate,3,78,cherry,church,incong,1,325
14,male,meditate,3,79,apple,pizza,incong,1,314
14,male,meditate,3,80,ball,ball,cong,1,434
14,male,meditate,3,81,cat,cat,cong,1,436
14,male,meditate,3,82,fork,fork,cong,1,415
14,male,meditate,3,83,cat,spoon,incong,1,352
14,male,meditate,3,84,boat,boat,cong,1,326
14,male,meditate,3,85,church,NA,neutral,1,364
14,male,meditate,3,86,dog,cat,incong,1,477
14,male,meditate,3,87,scissors,NA,neutral,1,396
14,male,meditate,3,88,bus,NA,neutral,1,402
14,male,meditate,3,89,pizza,hammer,incong,1,273
14,male,meditate,3,90,cup,bus,incong,1,356
15,male,meditate,1,1,dog,dog,cong,1,552
15,male,meditate,1,2,pizza,NA,neutral,1,531
15,male,meditate,1,3,fork,cat,incong,1,569
15,male,meditate,1,4,cup,NA,neutral,1,509
15,male,meditate,1,5,plate,plate,cong,1,535
15,male,meditate,1,6,horse,spoon,incong,1,532
15,male,meditate,1,7,horse,NA,neutral,1,518
15,male,meditate,1,8,spoon,NA,neutral,1,502
15,male,meditate,1,9,cat,cat,cong,1,511
15,male,meditate,1,10,church,shoe,incong,1,469
15,male,meditate,1,11,cake,cake,cong,1,532
15,male,meditate,1,12,bus,NA,neutral,1,507
15,male,meditate,1,13,carrot,carrot,cong,1,525
15,male,meditate,1,14,drill,drill,cong,1,603
15,male,meditate,1,15,cup,car,incong,1,463
15,male,meditate,1,16,plate,NA,neutral,1,519
15,male,meditate,1,17,stapler,apple,incong,0,500
15,male,meditate,1,18,star,NA,neutral,0,505
15,male,meditate,1,19,boat,dog,incong,0,479
15,male,meditate,1,20,church,church,cong,1,569
15,male,meditate,1,21,cherry,drill,incong,1,475
15,male,meditate,1,22,spoon,star,incong,1,473
15,male,meditate,1,23,moon,moon,cong,1,523
15,male,meditate,1,24,car,cup,incong,1,468
15,male,meditate,1,25,car,NA,neutral,0,513
15,male,meditate,1,26,fork,fork,cong,1,631
15,male,meditate,1,27,scissors,NA,neutral,1,622
15,male,meditate,1,28,lemon,NA,neutral,1,507
15,male,meditate,1,29,star,star,cong,1,610
15,male,meditate,1,30,hammer,hammer,cong,1,575
15,male,meditate,2,31,stapler,NA,neutral,1,552
15,male,meditate,2,32,burger,orange,incong,1,538
15,male,meditate,2,33,car,car,cong,1,518
15,male,meditate,2,34,shoe,fork,incong,1,511
15,male,meditate,2,35,church,NA,neutral,1,538
15,male,meditate,2,36,ball,tree,incong,1,537
15,male,meditate,2,37,scissors,scissors,cong,1,521
15,male,meditate,2,38,boat,NA,neutral,0,549
15,male,meditate,2,39,burger,NA,neutral,1,438
15,male,meditate,2,40,anchor,anchor,cong,1,512
15,male,meditate,2,41,dog,NA,neutral,1,565
15,male,meditate,2,42,ball,ball,cong,1,514
15,male,meditate,2,43,anchor,NA,neutral,0,545
15,male,meditate,2,44,tree,NA,neutral,1,441
15,male,meditate,2,45,cherry,cherry,cong,1,496
15,male,meditate,2,46,dog,anchor,incong,1,578
15,male,meditate,2,47,apple,stapler,incong,1,483
15,male,meditate,2,48,cake,NA,neutral,1,485
15,male,meditate,2,49,moon,NA,neutral,1,538
15,male,meditate,2,50,lemon,lemon,cong,1,589
15,male,meditate,2,51,tree,carrot,incong,1,571
15,male,meditate,2,52,plate,cake,incong,1,449
15,male,meditate,2,53,anchor,hat,incong,1,516
15,male,meditate,2,54,orange,orange,cong,1,482
15,male,meditate,2,55,hat,church,incong,1,457
15,male,meditate,2,56,carrot,moon,incong,1,512
15,male,meditate,2,57,stapler,stapler,cong,1,572
15,male,meditate,2,58,cat,NA,neutral,1,454
15,male,meditate,2,59,bus,plate,incong,1,451
15,male,meditate,2,60,cherry,NA,neutral,1,511
15,male,meditate,3,61,pizza,horse,incong,1,451
15,male,meditate,3,62,fork,NA,neutral,1,510
15,male,meditate,3,63,scissors,ball,incong,1,467
15,male,meditate,3,64,ball,NA,neutral,0,480
15,male,meditate,3,65,drill,burger,incong,1,481
15,male,meditate,3,66,pizza,pizza,cong,1,658
15,male,meditate,3,67,cake,lemon,incong,1,407
15,male,meditate,3,68,boat,boat,cong,1,558
15,male,meditate,3,69,star,cherry,incong,1,536
15,male,meditate,3,70,burger,burger,cong,1,511
15,male,meditate,3,71,hammer,scissors,incong,1,578
15,male,meditate,3,72,apple,NA,neutral,1,491
15,male,meditate,3,73,carrot,NA,neutral,1,474
15,male,meditate,3,74,shoe,NA,neutral,1,545
15,male,meditate,3,75,cat,boat,incong,1,498
15,male,meditate,3,76,bus,bus,cong,1,493
15,male,meditate,3,77,spoon,spoon,cong,1,491
15,male,meditate,3,78,drill,NA,neutral,1,439
15,male,meditate,3,79,shoe,shoe,cong,1,510
15,male,meditate,3,80,apple,apple,cong,1,523
15,male,meditate,3,81,hat,hat,cong,1,587
15,male,meditate,3,82,orange,NA,neutral,1,449
15,male,meditate,3,83,orange,bus,incong,1,456
15,male,meditate,3,84,moon,pizza,incong,0,561
15,male,meditate,3,85,hammer,NA,neutral,0,545
15,male,meditate,3,86,horse,horse,cong,1,511
15,male,meditate,3,87,hat,NA,neutral,1,450
15,male,meditate,3,88,tree,tree,cong,0,493
15,male,meditate,3,89,cup,cup,cong,1,548
15,male,meditate,3,90,lemon,hammer,incong,1,608
16,male,meditate,1,1,dog,NA,neutral,1,442
16,male,meditate,1,2,moon,hammer,incong,1,378
16,male,meditate,1,3,lemon,NA,neutral,1,429
16,male,meditate,1,4,hammer,NA,neutral,1,426
16,male,meditate,1,5,car,car,cong,1,473
16,male,meditate,1,6,stapler,ball,incong,1,364
16,male,meditate,1,7,drill,car,incong,1,417
16,male,meditate,1,8,star,NA,neutral,1,445
16,male,meditate,1,9,shoe,NA,neutral,1,449
16,male,meditate,1,10,ball,pizza,incong,1,409
16,male,meditate,1,11,bus,fork,incong,1,454
16,male,meditate,1,12,car,cherry,incong,1,587
16,male,meditate,1,13,cat,NA,neutral,1,518
16,male,meditate,1,14,anchor,NA,neutral,1,459
16,male,meditate,1,15,hat,NA,neutral,1,468
16,male,meditate,1,16,fork,NA,neutral,1,458
16,male,meditate,1,17,drill,NA,neutral,1,431
16,male,meditate,1,18,horse,horse,cong,1,467
16,male,meditate,1,19,boat,NA,neutral,1,422
16,male,meditate,1,20,plate,NA,neutral,1,452
16,male,meditate,1,21,hat,hat,cong,1,478
16,male,meditate,1,22,hammer,cake,incong,1,446
16,male,meditate,1,23,burger,NA,neutral,1,485
16,male,meditate,1,24,fork,fork,cong,1,493
16,male,meditate,1,25,scissors,scissors,cong,1,524
16,male,meditate,1,26,cherry,NA,neutral,1,447
16,male,meditate,1,27,cake,NA,neutral,1,460
16,male,meditate,1,28,spoon,spoon,cong,1,490
16,male,meditate,1,29,moon,NA,neutral,1,425
16,male,meditate,1,30,lemon,cup,incong,1,522
16,male,meditate,2,31,plate,carrot,incong,1,358
16,male,meditate,2,32,pizza,pizza,cong,1,525
16,male,meditate,2,33,anchor,cat,incong,1,415
16,male,meditate,2,34,apple,NA,neutral,1,364
16,male,meditate,2,35,shoe,drill,incong,1,374
16,male,meditate,2,36,apple,apple,cong,1,435
16,male,meditate,2,37,star,star,cong,1,487
16,male,meditate,2,38,plate,plate,cong,1,456
16,male,meditate,2,39,boat,boat,cong,1,475
16,male,meditate,2,40,cup,shoe,incong,1,396
16,male,meditate,2,41,tree,spoon,incong,1,380
16,male,meditate,2,42,star,apple,incong,1,402
16,male,meditate,2,43,carrot,carrot,cong,1,448
16,male,meditate,2,44,carrot,burger,incong,1,369
16,male,meditate,2,45,cake,cake,cong,1,530
16,male,meditate,2,46,scissors,NA,neutral,1,469
16,male,meditate,2,47,cake,orange,incong,1,465
16,male,meditate,2,48,burger,burger,cong,1,467
16,male,meditate,2,49,fork,tree,incong,1,444
16,male,meditate,2,50,cup,cup,cong,1,489
16,male,meditate,2,51,apple,boat,incong,1,354
16,male,meditate,2,52,stapler,NA,neutral,1,407
16,male,meditate,2,53,ball,ball,cong,1,459
16,male,meditate,2,54,hammer,hammer,cong,1,502
16,male,meditate,2,55,spoon,moon,incong,1,348
16,male,meditate,2,56,cup,NA,neutral,1,408
16,male,meditate,2,57,boat,church,incong,0,359
16,male,meditate,2,58,moon,moon,cong,1,469
16,male,meditate,2,59,church,hat,incong,1,438
16,male,meditate,2,60,cherry,cherry,cong,0,487
16,male,meditate,3,61,hat,anchor,incong,1,374
16,male,meditate,3,62,shoe,shoe,cong,1,461
16,male,meditate,3,63,car,NA,neutral,1,470
16,male,meditate,3,64,scissors,dog,incong,1,393
16,male,meditate,3,65,burger,horse,incong,1,432
16,male,meditate,3,66,pizza,stapler,incong,1,369
16,male,meditate,3,67,drill,drill,cong,1,474
16,male,meditate,3,68,orange,plate,incong,1,372
16,male,meditate,3,69,tree,NA,neutral,1,435
16,male,meditate,3,70,stapler,stapler,cong,1,482
16,male,meditate,3,71,horse,bus,incong,1,305
16,male,meditate,3,72,cherry,star,incong,1,354
16,male,meditate,3,73,cat,scissors,incong,1,361
16,male,meditate,3,74,horse,NA,neutral,1,424
16,male,meditate,3,75,orange,orange,cong,1,456
16,male,meditate,3,76,spoon,NA,neutral,1,398
16,male,meditate,3,77,ball,NA,neutral,1,386
16,male,meditate,3,78,lemon,lemon,cong,1,534
16,male,meditate,3,79,church,NA,neutral,1,363
16,male,meditate,3,80,bus,bus,cong,1,435
16,male,meditate,3,81,pizza,NA,neutral,1,448
16,male,meditate,3,82,dog,dog,cong,1,456
16,male,meditate,3,83,anchor,anchor,cong,1,412
16,male,meditate,3,84,bus,NA,neutral,1,433
16,male,meditate,3,85,dog,lemon,incong,1,406
16,male,meditate,3,86,carrot,NA,neutral,1,371
16,male,meditate,3,87,orange,NA,neutral,1,437
16,male,meditate,3,88,tree,tree,cong,1,434
16,male,meditate,3,89,church,church,cong,1,532
16,male,meditate,3,90,cat,cat,cong,1,461
17,male,meditate,1,1,scissors,cake,incong,1,382
17,male,meditate,1,2,shoe,NA,neutral,1,403
17,male,meditate,1,3,shoe,moon,incong,1,425
17,male,meditate,1,4,anchor,anchor,cong,1,472
17,male,meditate,1,5,hat,plate,incong,1,437
17,male,meditate,1,6,star,car,incong,1,363
17,male,meditate,1,7,car,star,incong,1,341
17,male,meditate,1,8,hat,NA,neutral,1,496
17,male,meditate,1,9,apple,NA,neutral,1,496
17,male,meditate,1,10,burger,stapler,incong,1,430
17,male,meditate,1,11,plate,plate,cong,1,512
17,male,meditate,1,12,hammer,apple,incong,1,392
17,male,meditate,1,13,moon,NA,neutral,1,378
17,male,meditate,1,14,car,NA,neutral,1,421
17,male,meditate,1,15,hat,hat,cong,1,496
17,male,meditate,1,16,carrot,NA,neutral,1,435
17,male,meditate,1,17,cherry,cherry,cong,1,499
17,male,meditate,1,18,hammer,hammer,cong,1,577
17,male,meditate,1,19,burger,burger,cong,1,509
17,male,meditate,1,20,bus,NA,neutral,1,429
17,male,meditate,1,21,car,car,cong,1,546
17,male,meditate,1,22,anchor,NA,neutral,1,397
17,male,meditate,1,23,tree,tree,cong,1,494
17,male,meditate,1,24,tree,NA,neutral,1,396
17,male,meditate,1,25,stapler,NA,neutral,1,461
17,male,meditate,1,26,orange,orange,cong,1,497
17,male,meditate,1,27,carrot,carrot,cong,1,455
17,male,meditate,1,28,drill,NA,neutral,1,387
17,male,meditate,1,29,drill,drill,cong,1,447
17,male,meditate,1,30,lemon,NA,neutral,1,477
17,male,meditate,2,31,church,church,cong,1,449
17,male,meditate,2,32,dog,carrot,incong,1,300
17,male,meditate,2,33,pizza,NA,neutral,1,464
17,male,meditate,2,34,carrot,orange,incong,1,485
17,male,meditate,2,35,pizza,pizza,cong,1,534
17,male,meditate,2,36,boat,boat,cong,1,402
17,male,meditate,2,37,pizza,ball,incong,1,266
17,male,meditate,2,38,ball,ball,cong,1,514
17,male,meditate,2,39,tree,cherry,incong,1,301
17,male,meditate,2,40,church,fork,incong,1,295
17,male,meditate,2,41,cup,cup,cong,1,469
17,male,meditate,2,42,dog,dog,cong,1,501
17,male,meditate,2,43,orange,NA,neutral,1,484
17,male,meditate,2,44,cake,cake,cong,1,567
17,male,meditate,2,45,spoon,NA,neutral,1,414
17,male,meditate,2,46,apple,cup,incong,1,301
17,male,meditate,2,47,shoe,shoe,cong,1,473
17,male,meditate,2,48,cherry,NA,neutral,1,393
17,male,meditate,2,49,fork,lemon,incong,1,481
17,male,meditate,2,50,cake,spoon,incong,1,405
17,male,meditate,2,51,burger,NA,neutral,1,417
17,male,meditate,2,52,church,NA,neutral,1,403
17,male,meditate,2,53,anchor,drill,incong,1,360
17,male,meditate,2,54,cherry,pizza,incong,1,294
17,male,meditate,2,55,cat,cat,cong,1,426
17,male,meditate,2,56,scissors,NA,neutral,1,431
17,male,meditate,2,57,hammer,NA,neutral,1,388
17,male,meditate,2,58,boat,NA,neutral,1,539
17,male,meditate,2,59,star,NA,neutral,1,416
17,male,meditate,2,60,fork,fork,cong,1,439
17,male,meditate,3,61,orange,hammer,incong,1,327
17,male,meditate,3,62,star,star,cong,1,473
17,male,meditate,3,63,cake,NA,neutral,1,455
17,male,meditate,3,64,scissors,scissors,cong,1,480
17,male,meditate,3,65,ball,NA,neutral,1,616
17,male,meditate,3,66,stapler,stapler,cong,1,458
17,male,meditate,3,67,horse,burger,incong,1,321
17,male,meditate,3,68,ball,anchor,incong,1,246
17,male,meditate,3,69,lemon,bus,incong,1,382
17,male,meditate,3,70,apple,apple,cong,1,448
17,male,meditate,3,71,cat,NA,neutral,1,419
17,male,meditate,3,72,cup,NA,neutral,1,433
17,male,meditate,3,73,bus,dog,incong,1,380
17,male,meditate,3,74,cup,hat,incong,1,408
17,male,meditate,3,75,moon,moon,cong,1,663
17,male,meditate,3,76,stapler,scissors,incong,1,257
17,male,meditate,3,77,fork,NA,neutral,1,360
17,male,meditate,3,78,spoon,spoon,cong,1,595
17,male,meditate,3,79,moon,church,incong,1,286
17,male,meditate,3,80,horse,NA,neutral,1,491
17,male,meditate,3,81,plate,NA,neutral,1,380
17,male,meditate,3,82,cat,shoe,incong,1,331
17,male,meditate,3,83,horse,horse,cong,1,441
17,male,meditate,3,84,spoon,horse,incong,1,293
17,male,meditate,3,85,lemon,lemon,cong,1,438
17,male,meditate,3,86,drill,cat,incong,1,387
17,male,meditate,3,87,dog,NA,neutral,0,488
17,male,meditate,3,88,boat,boat,cong,1,319
17,male,meditate,3,89,plate,tree,incong,1,310
17,male,meditate,3,90,bus,bus,cong,1,607
18,male,meditate,1,1,horse,horse,cong,1,432
18,male,meditate,1,2,cat,cat,cong,1,436
18,male,meditate,1,3,car,boat,incong,1,515
18,male,meditate,1,4,moon,spoon,incong,1,510
18,male,meditate,1,5,tree,moon,incong,1,517
18,male,meditate,1,6,plate,plate,cong,1,500
18,male,meditate,1,7,drill,drill,cong,1,415
18,male,meditate,1,8,spoon,drill,incong,1,557
18,male,meditate,1,9,plate,NA,neutral,1,468
18,male,meditate,1,10,cake,cake,cong,1,414
18,male,meditate,1,11,scissors,stapler,incong,1,573
18,male,meditate,1,12,tree,tree,cong,1,443
18,male,meditate,1,13,cup,NA,neutral,1,543
18,male,meditate,1,14,hammer,hammer,cong,1,444
18,male,meditate,1,15,burger,NA,neutral,1,491
18,male,meditate,1,16,apple,NA,neutral,1,510
18,male,meditate,1,17,drill,fork,incong,1,542
18,male,meditate,1,18,hammer,burger,incong,1,483
18,male,meditate,1,19,cherry,cherry,cong,1,432
18,male,meditate,1,20,spoon,NA,neutral,1,480
18,male,meditate,1,21,hat,hat,cong,1,402
18,male,meditate,1,22,lemon,NA,neutral,1,540
18,male,meditate,1,23,orange,anchor,incong,1,473
18,male,meditate,1,24,star,star,cong,1,449
18,male,meditate,1,25,apple,apple,cong,1,433
18,male,meditate,1,26,carrot,NA,neutral,1,473
18,male,meditate,1,27,plate,cake,incong,1,478
18,male,meditate,1,28,fork,fork,cong,1,431
18,male,meditate,1,29,car,car,cong,1,459
18,male,meditate,1,30,hat,plate,incong,1,668
18,male,meditate,2,31,shoe,apple,incong,1,438
18,male,meditate,2,32,dog,NA,neutral,1,615
18,male,meditate,2,33,stapler,horse,incong,1,544
18,male,meditate,2,34,anchor,NA,neutral,1,473
18,male,meditate,2,35,drill,NA,neutral,1,600
18,male,meditate,2,36,cup,ball,incong,0,476
18,male,meditate,2,37,cat,NA,neutral,1,552
18,male,meditate,2,38,ball,orange,incong,1,518
18,male,meditate,2,39,burger,car,incong,1,851
18,male,meditate,2,40,shoe,NA,neutral,1,494
18,male,meditate,2,41,dog,cherry,incong,1,599
18,male,meditate,2,42,horse,NA,neutral,0,500
18,male,meditate,2,43,boat,boat,cong,1,490
18,male,meditate,2,44,orange,NA,neutral,1,833
18,male,meditate,2,45,star,NA,neutral,1,442
18,male,meditate,2,46,hat,NA,neutral,1,471
18,male,meditate,2,47,dog,dog,cong,1,519
18,male,meditate,2,48,cake,church,incong,1,544
18,male,meditate,2,49,bus,carrot,incong,1,559
18,male,meditate,2,50,pizza,NA,neutral,1,431
18,male,meditate,2,51,spoon,spoon,cong,1,386
18,male,meditate,2,52,church,NA,neutral,1,493
18,male,meditate,2,53,church,church,cong,1,591
18,male,meditate,2,54,carrot,hat,incong,1,573
18,male,meditate,2,55,cherry,NA,neutral,1,458
18,male,meditate,2,56,star,dog,incong,1,685
18,male,meditate,2,57,hammer,NA,neutral,1,409
18,male,meditate,2,58,lemon,lemon,cong,1,527
18,male,meditate,2,59,bus,bus,cong,1,720
18,male,meditate,2,60,shoe,shoe,cong,1,416
18,male,meditate,3,61,cake,NA,neutral,1,361
18,male,meditate,3,62,carrot,carrot,cong,1,409
18,male,meditate,3,63,apple,bus,incong,1,553
18,male,meditate,3,64,bus,NA,neutral,1,441
18,male,meditate,3,65,anchor,anchor,cong,1,531
18,male,meditate,3,66,boat,scissors,incong,1,543
18,male,meditate,3,67,ball,NA,neutral,1,590
18,male,meditate,3,68,ball,ball,cong,1,486
18,male,meditate,3,69,lemon,cup,incong,1,475
18,male,meditate,3,70,burger,burger,cong,1,435
18,male,meditate,3,71,anchor,star,incong,1,637
18,male,meditate,3,72,fork,NA,neutral,1,388
18,male,meditate,3,73,horse,tree,incong,1,517
18,male,meditate,3,74,moon,NA,neutral,1,604
18,male,meditate,3,75,orange,orange,cong,1,337
18,male,meditate,3,76,stapler,stapler,cong,1,352
18,male,meditate,3,77,car,NA,neutral,1,462
18,male,meditate,3,78,scissors,NA,neutral,1,503
18,male,meditate,3,79,tree,NA,neutral,1,413
18,male,meditate,3,80,cup,cup,cong,1,459
18,male,meditate,3,81,cherry,pizza,incong,1,589
18,male,meditate,3,82,stapler,NA,neutral,1,641
18,male,meditate,3,83,cat,hammer,incong,1,463
18,male,meditate,3,84,church,shoe,incong,1,504
18,male,meditate,3,85,moon,moon,cong,1,376
18,male,meditate,3,86,pizza,lemon,incong,1,380
18,male,meditate,3,87,boat,NA,neutral,1,392
18,male,meditate,3,88,fork,cat,incong,1,401
18,male,meditate,3,89,pizza,pizza,cong,1,599
18,male,meditate,3,90,scissors,scissors,cong,1,352
19,male,meditate,1,1,car,car,cong,1,626
19,male,meditate,1,2,cup,moon,incong,1,392
19,male,meditate,1,3,fork,fork,cong,1,500
19,male,meditate,1,4,spoon,NA,neutral,1,532
19,male,meditate,1,5,tree,NA,neutral,1,434
19,male,meditate,1,6,fork,NA,neutral,1,637
19,male,meditate,1,7,orange,orange,cong,1,540
19,male,meditate,1,8,tree,tree,cong,1,524
19,male,meditate,1,9,hat,spoon,incong,1,432
19,male,meditate,1,10,bus,car,incong,1,418
19,male,meditate,1,11,scissors,scissors,cong,1,584
19,male,meditate,1,12,apple,apple,cong,1,538
19,male,meditate,1,13,anchor,anchor,cong,1,513
19,male,meditate,1,14,anchor,NA,neutral,1,489
19,male,meditate,1,15,spoon,dog,incong,0,411
19,male,meditate,1,16,plate,NA,neutral,1,543
19,male,meditate,1,17,carrot,NA,neutral,1,497
19,male,meditate,1,18,burger,burger,cong,1,518
19,male,meditate,1,19,car,boat,incong,1,480
19,male,meditate,1,20,star,NA,neutral,1,500
19,male,meditate,1,21,spoon,spoon,cong,1,576
19,male,meditate,1,22,tree,burger,incong,1,396
19,male,meditate,1,23,moon,moon,cong,1,548
19,male,meditate,1,24,apple,anchor,incong,1,476
19,male,meditate,1,25,bus,NA,neutral,1,554
19,male,meditate,1,26,shoe,NA,neutral,1,600
19,male,meditate,1,27,anchor,apple,incong,1,583
19,male,meditate,1,28,boat,NA,neutral,1,485
19,male,meditate,1,29,star,star,cong,1,475
19,male,meditate,1,30,scissors,NA,neutral,1,461
19,male,meditate,2,31,cherry,cherry,cong,1,452
19,male,meditate,2,32,star,cup,incong,1,391
19,male,meditate,2,33,cat,hammer,incong,1,357
19,male,meditate,2,34,boat,fork,incong,1,423
19,male,meditate,2,35,hammer,hammer,cong,1,448
19,male,meditate,2,36,pizza,NA,neutral,1,514
19,male,meditate,2,37,hammer,pizza,incong,1,449
19,male,meditate,2,38,hammer,NA,neutral,1,375
19,male,meditate,2,39,ball,drill,incong,1,465
19,male,meditate,2,40,cake,cake,cong,1,415
19,male,meditate,2,41,church,horse,incong,0,423
19,male,meditate,2,42,lemon,lemon,cong,1,618
19,male,meditate,2,43,hat,NA,neutral,1,366
19,male,meditate,2,44,carrot,carrot,cong,0,455
19,male,meditate,2,45,cake,NA,neutral,0,576
19,male,meditate,2,46,carrot,bus,incong,1,476
19,male,meditate,2,47,cake,cake,cong,1,439
19,male,meditate,2,48,shoe,shoe,cong,1,504
19,male,meditate,2,49,bus,bus,cong,1,555
19,male,meditate,2,50,church,NA,neutral,1,464
19,male,meditate,2,51,orange,NA,neutral,1,482
19,male,meditate,2,52,lemon,NA,neutral,1,479
19,male,meditate,2,53,lemon,stapler,incong,1,366
19,male,meditate,2,54,apple,NA,neutral,0,485
19,male,meditate,2,55,horse,NA,neutral,1,403
19,male,meditate,2,56,cup,NA,neutral,1,546
19,male,meditate,2,57,ball,NA,neutral,1,450
19,male,meditate,2,58,hat,hat,cong,1,442
19,male,meditate,2,59,plate,plate,cong,1,525
19,male,meditate,2,60,burger,NA,neutral,1,533
19,male,meditate,3,61,stapler,NA,neutral,1,362
19,male,meditate,3,62,plate,plate,cong,0,415
19,male,meditate,3,63,cup,cup,cong,1,524
19,male,meditate,3,64,drill,church,incong,0,425
19,male,meditate,3,65,church,church,cong,1,515
19,male,meditate,3,66,fork,orange,incong,1,589
19,male,meditate,3,67,dog,NA,neutral,1,444
19,male,meditate,3,68,stapler,stapler,cong,0,588
19,male,meditate,3,69,stapler,scissors,incong,0,328
19,male,meditate,3,70,cherry,NA,neutral,1,601
19,male,meditate,3,71,shoe,cat,incong,1,489
19,male,meditate,3,72,horse,horse,cong,1,582
19,male,meditate,3,73,ball,ball,cong,0,453
19,male,meditate,3,74,moon,NA,neutral,1,461
19,male,meditate,3,75,pizza,tree,incong,1,403
19,male,meditate,3,76,cat,NA,neutral,1,446
19,male,meditate,3,77,cat,cat,cong,1,582
19,male,meditate,3,78,scissors,shoe,incong,1,455
19,male,meditate,3,79,horse,star,incong,0,491
19,male,meditate,3,80,burger,hat,incong,1,468
19,male,meditate,3,81,drill,drill,cong,1,521
19,male,meditate,3,82,boat,boat,cong,0,439
19,male,meditate,3,83,orange,carrot,incong,1,421
19,male,meditate,3,84,car,NA,neutral,1,432
19,male,meditate,3,85,drill,NA,neutral,1,751
19,male,meditate,3,86,cherry,ball,incong,1,452
19,male,meditate,3,87,pizza,pizza,cong,1,556
19,male,meditate,3,88,dog,dog,cong,1,437
19,male,meditate,3,89,dog,cherry,incong,1,371
19,male,meditate,3,90,moon,lemon,incong,1,384
20,male,meditate,1,1,burger,burger,cong,1,479
20,male,meditate,1,2,bus,NA,neutral,1,568
20,male,meditate,1,3,moon,NA,neutral,1,556
20,male,meditate,1,4,cat,stapler,incong,1,535
20,male,meditate,1,5,cat,cat,cong,1,420
20,male,meditate,1,6,spoon,NA,neutral,1,464
20,male,meditate,1,7,shoe,NA,neutral,0,476
20,male,meditate,1,8,hammer,hammer,cong,1,426
20,male,meditate,1,9,cherry,NA,neutral,1,496
20,male,meditate,1,10,cherry,cherry,cong,1,464
20,male,meditate,1,11,plate,NA,neutral,1,463
20,male,meditate,1,12,cake,pizza,incong,1,505
20,male,meditate,1,13,church,drill,incong,0,556
20,male,meditate,1,14,church,NA,neutral,1,488
20,male,meditate,1,15,star,horse,incong,1,551
20,male,meditate,1,16,cherry,dog,incong,0,649
20,male,meditate,1,17,car,car,cong,1,408
20,male,meditate,1,18,horse,shoe,incong,1,562
20,male,meditate,1,19,moon,boat,incong,1,543
20,male,meditate,1,20,hat,NA,neutral,1,479
20,male,meditate,1,21,lemon,NA,neutral,1,489
20,male,meditate,1,22,ball,NA,neutral,1,551
20,male,meditate,1,23,dog,dog,cong,1,407
20,male,meditate,1,24,church,church,cong,1,499
20,male,meditate,1,25,anchor,NA,neutral,1,547
20,male,meditate,1,26,spoon,spoon,cong,0,549
20,male,meditate,1,27,carrot,NA,neutral,1,480
20,male,meditate,1,28,hat,spoon,incong,1,622
20,male,meditate,1,29,cup,NA,neutral,1,531
20,male,meditate,1,30,cat,NA,neutral,1,554
20,male,meditate,2,31,pizza,NA,neutral,1,580
20,male,meditate,2,32,fork,moon,incong,0,483
20,male,meditate,2,33,horse,horse,cong,1,490
20,male,meditate,2,34,anchor,apple,incong,1,636
20,male,meditate,2,35,ball,tree,incong,1,598
20,male,meditate,2,36,drill,drill,cong,1,402
20,male,meditate,2,37,lemon,lemon,cong,1,544
20,male,meditate,2,38,tree,tree,cong,1,440
20,male,meditate,2,39,bus,bus,cong,1,426
20,male,meditate,2,40,spoon,burger,incong,1,540
20,male,meditate,2,41,cup,cup,cong,1,427
20,male,meditate,2,42,fork,NA,neutral,1,489
20,male,meditate,2,43,pizza,ball,incong,1,524
20,male,meditate,2,44,boat,NA,neutral,1,521
20,male,meditate,2,45,orange,NA,neutral,1,534
20,male,meditate,2,46,hammer,hat,incong,1,630
20,male,meditate,2,47,shoe,lemon,incong,1,591
20,male,meditate,2,48,anchor,anchor,cong,1,464
20,male,meditate,2,49,hammer,NA,neutral,1,526
20,male,meditate,2,50,ball,ball,cong,1,401
20,male,meditate,2,51,drill,hammer,incong,1,504
20,male,meditate,2,52,plate,plate,cong,1,521
20,male,meditate,2,53,cake,cake,cong,1,395
20,male,meditate,2,54,orange,plate,incong,1,463
20,male,meditate,2,55,hat,hat,cong,1,455
20,male,meditate,2,56,boat,carrot,incong,1,529
20,male,meditate,2,57,star,NA,neutral,1,398
20,male,meditate,2,58,stapler,NA,neutral,1,481
20,male,meditate,2,59,tree,NA,neutral,1,553
20,male,meditate,2,60,scissors,scissors,cong,1,545
20,male,meditate,3,61,dog,NA,neutral,1,503
20,male,meditate,3,62,car,cup,incong,1,585
20,male,meditate,3,63,shoe,shoe,cong,1,482
20,male,meditate,3,64,lemon,bus,incong,1,530
20,male,meditate,3,65,burger,scissors,incong,1,472
20,male,meditate,3,66,scissors,cat,incong,1,482
20,male,meditate,3,67,pizza,pizza,cong,1,379
20,male,meditate,3,68,carrot,anchor,incong,1,568
20,male,meditate,3,69,star,star,cong,1,461
20,male,meditate,3,70,plate,star,incong,1,536
20,male,meditate,3,71,apple,apple,cong,1,518
20,male,meditate,3,72,stapler,orange,incong,1,622
20,male,meditate,3,73,cake,NA,neutral,1,463
20,male,meditate,3,74,car,NA,neutral,1,603
20,male,meditate,3,75,boat,boat,cong,1,355
20,male,meditate,3,76,moon,moon,cong,1,480
20,male,meditate,3,77,drill,NA,neutral,1,442
20,male,meditate,3,78,scissors,NA,neutral,1,528
20,male,meditate,3,79,orange,orange,cong,1,384
20,male,meditate,3,80,apple,church,incong,1,501
20,male,meditate,3,81,burger,NA,neutral,1,398
20,male,meditate,3,82,tree,cake,incong,1,530
20,male,meditate,3,83,horse,NA,neutral,1,493
20,male,meditate,3,84,stapler,stapler,cong,1,461
20,male,meditate,3,85,cup,car,incong,1,653
20,male,meditate,3,86,apple,NA,neutral,0,486
20,male,meditate,3,87,carrot,carrot,cong,1,447
20,male,meditate,3,88,fork,fork,cong,1,508
20,male,meditate,3,89,bus,fork,incong,1,598
20,male,meditate,3,90,dog,cherry,incong,1,531
21,male,meditate,1,1,bus,horse,incong,0,497
21,male,meditate,1,2,hat,moon,incong,1,464
21,male,meditate,1,3,pizza,burger,incong,1,504
21,male,meditate,1,4,stapler,hammer,incong,1,504
21,male,meditate,1,5,apple,dog,incong,1,502
21,male,meditate,1,6,fork,cherry,incong,1,482
21,male,meditate,1,7,stapler,NA,neutral,1,503
21,male,meditate,1,8,hammer,hammer,cong,1,512
21,male,meditate,1,9,cake,cake,cong,1,482
21,male,meditate,1,10,bus,bus,cong,1,524
21,male,meditate,1,11,moon,church,incong,1,515
21,male,meditate,1,12,apple,NA,neutral,1,490
21,male,meditate,1,13,pizza,pizza,cong,1,458
21,male,meditate,1,14,cherry,fork,incong,1,549
21,male,meditate,1,15,horse,orange,incong,1,597
21,male,meditate,1,16,horse,NA,neutral,0,487
21,male,meditate,1,17,tree,tree,cong,1,446
21,male,meditate,1,18,boat,NA,neutral,1,455
21,male,meditate,1,19,dog,dog,cong,1,525
21,male,meditate,1,20,orange,NA,neutral,1,437
21,male,meditate,1,21,moon,moon,cong,1,449
21,male,meditate,1,22,drill,drill,cong,0,448
21,male,meditate,1,23,boat,boat,cong,1,460
21,male,meditate,1,24,plate,tree,incong,0,475
21,male,meditate,1,25,drill,NA,neutral,1,514
21,male,meditate,1,26,cherry,cherry,cong,1,454
21,male,meditate,1,27,hat,NA,neutral,1,465
21,male,meditate,1,28,car,anchor,incong,1,462
21,male,meditate,1,29,lemon,lemon,cong,1,564
21,male,meditate,1,30,star,apple,incong,1,434
21,male,meditate,2,31,car,NA,neutral,1,484
21,male,meditate,2,32,tree,plate,incong,1,686
21,male,meditate,2,33,horse,horse,cong,1,585
21,male,meditate,2,34,hat,hat,cong,1,418
21,male,meditate,2,35,fork,NA,neutral,1,506
21,male,meditate,2,36,plate,NA,neutral,1,418
21,male,meditate,2,37,scissors,scissors,cong,0,494
21,male,meditate,2,38,orange,orange,cong,0,598
21,male,meditate,2,39,cake,stapler,incong,1,435
21,male,meditate,2,40,cat,bus,incong,1,502
21,male,meditate,2,41,anchor,carrot,incong,1,506
21,male,meditate,2,42,cat,NA,neutral,1,494
21,male,meditate,2,43,carrot,carrot,cong,1,457
21,male,meditate,2,44,anchor,NA,neutral,1,458
21,male,meditate,2,45,shoe,car,incong,1,451
21,male,meditate,2,46,burger,NA,neutral,1,460
21,male,meditate,2,47,cup,cup,cong,1,615
21,male,meditate,2,48,car,car,cong,1,626
21,male,meditate,2,49,orange,cup,incong,0,555
21,male,meditate,2,50,fork,fork,cong,1,557
21,male,meditate,2,51,drill,ball,incong,1,429
21,male,meditate,2,52,star,star,cong,1,527
21,male,meditate,2,53,hammer,NA,neutral,1,606
21,male,meditate,2,54,carrot,NA,neutral,1,395
21,male,meditate,2,55,burger,pizza,incong,1,506
21,male,meditate,2,56,dog,NA,neutral,0,491
21,male,meditate,2,57,cup,NA,neutral,1,505
21,male,meditate,2,58,church,NA,neutral,1,472
21,male,meditate,2,59,ball,ball,cong,0,463
21,male,meditate,2,60,spoon,NA,neutral,1,495
21,male,meditate,3,61,anchor,anchor,cong,1,475
21,male,meditate,3,62,tree,NA,neutral,1,521
21,male,meditate,3,63,shoe,NA,neutral,1,535
21,male,meditate,3,64,cherry,NA,neutral,1,532
21,male,meditate,3,65,spoon,drill,incong,1,621
21,male,meditate,3,66,spoon,spoon,cong,1,419
21,male,meditate,3,67,hammer,lemon,incong,0,443
21,male,meditate,3,68,cake,NA,neutral,1,511
21,male,meditate,3,69,apple,apple,cong,1,459
21,male,meditate,3,70,pizza,NA,neutral,1,580
21,male,meditate,3,71,lemon,NA,neutral,1,481
21,male,meditate,3,72,church,cat,incong,1,491
21,male,meditate,3,73,cat,cat,cong,1,454
21,male,meditate,3,74,moon,NA,neutral,1,532
21,male,meditate,3,75,star,NA,neutral,1,413
21,male,meditate,3,76,ball,NA,neutral,1,483
21,male,meditate,3,77,cup,shoe,incong,1,509
21,male,meditate,3,78,dog,hat,incong,1,539
21,male,meditate,3,79,plate,plate,cong,1,496
21,male,meditate,3,80,church,church,cong,1,631
21,male,meditate,3,81,lemon,boat,incong,1,666
21,male,meditate,3,82,shoe,shoe,cong,1,533
21,male,meditate,3,83,ball,scissors,incong,0,509
21,male,meditate,3,84,scissors,star,incong,1,488
21,male,meditate,3,85,scissors,NA,neutral,1,572
21,male,meditate,3,86,carrot,spoon,incong,1,492
21,male,meditate,3,87,burger,burger,cong,1,503
21,male,meditate,3,88,stapler,stapler,cong,0,437
21,male,meditate,3,89,boat,cake,incong,1,455
21,male,meditate,3,90,bus,NA,neutral,1,401
22,male,meditate,1,1,pizza,pizza,cong,1,537
22,male,meditate,1,2,stapler,stapler,cong,1,559
22,male,meditate,1,3,apple,NA,neutral,1,434
22,male,meditate,1,4,drill,drill,cong,1,480
22,male,meditate,1,5,horse,horse,cong,1,490
22,male,meditate,1,6,church,church,cong,1,487
22,male,meditate,1,7,anchor,anchor,cong,0,590
22,male,meditate,1,8,hat,plate,incong,1,405
22,male,meditate,1,9,cake,tree,incong,1,415
22,male,meditate,1,10,shoe,apple,incong,1,359
22,male,meditate,1,11,moon,moon,cong,1,705
22,male,meditate,1,12,ball,cake,incong,1,439
22,male,meditate,1,13,cat,pizza,incong,1,383
22,male,meditate,1,14,burger,NA,neutral,1,424
22,male,meditate,1,15,boat,NA,neutral,1,511
22,male,meditate,1,16,church,scissors,incong,1,418
22,male,meditate,1,17,car,car,cong,1,541
22,male,meditate,1,18,ball,ball,cong,1,669
22,male,meditate,1,19,tree,NA,neutral,1,435
22,male,meditate,1,20,boat,horse,incong,0,383
22,male,meditate,1,21,spoon,boat,incong,1,441
22,male,meditate,1,22,anchor,shoe,incong,1,404
22,male,meditate,1,23,ball,NA,neutral,1,533
22,male,meditate,1,24,lemon,lemon,cong,1,554
22,male,meditate,1,25,car,ball,incong,0,373
22,male,meditate,1,26,bus,NA,neutral,1,495
22,male,meditate,1,27,dog,NA,neutral,1,482
22,male,meditate,1,28,dog,dog,cong,1,470
22,male,meditate,1,29,cup,cup,cong,1,495
22,male,meditate,1,30,tree,moon,incong,1,411
22,male,meditate,2,31,drill,NA,neutral,1,512
22,male,meditate,2,32,cherry,NA,neutral,1,461
22,male,meditate,2,33,orange,star,incong,1,445
22,male,meditate,2,34,car,NA,neutral,1,441
22,male,meditate,2,35,spoon,spoon,cong,1,630
22,male,meditate,2,36,shoe,shoe,cong,1,490
22,male,meditate,2,37,pizza,hammer,incong,1,287
22,male,meditate,2,38,lemon,NA,neutral,1,385
22,male,meditate,2,39,bus,orange,incong,1,329
22,male,meditate,2,40,stapler,cat,incong,1,455
22,male,meditate,2,41,carrot,carrot,cong,1,574
22,male,meditate,2,42,cat,NA,neutral,1,398
22,male,meditate,2,43,drill,drill,cong,1,431
22,male,meditate,2,44,star,star,cong,0,501
22,male,meditate,2,45,hat,hat,cong,1,564
22,male,meditate,2,46,spoon,NA,neutral,1,428
22,male,meditate,2,47,boat,boat,cong,1,503
22,male,meditate,2,48,carrot,carrot,cong,1,397
22,male,meditate,2,49,tree,tree,cong,1,598
22,male,meditate,2,50,fork,cup,incong,1,504
22,male,meditate,2,51,plate,cherry,incong,1,321
22,male,meditate,2,52,hammer,burger,incong,1,258
22,male,meditate,2,53,lemon,stapler,incong,1,469
22,male,meditate,2,54,cake,cake,cong,1,413
22,male,meditate,2,55,horse,fork,incong,1,468
22,male,meditate,2,56,shoe,NA,neutral,0,582
22,male,meditate,2,57,hammer,hammer,cong,1,417
22,male,meditate,2,58,anchor,NA,neutral,1,395
22,male,meditate,2,59,plate,plate,cong,1,604
22,male,meditate,2,60,dog,lemon,incong,1,581
22,male,meditate,3,61,apple,anchor,incong,1,352
22,male,meditate,3,62,star,NA,neutral,1,472
22,male,meditate,3,63,star,car,incong,0,346
22,male,meditate,3,64,pizza,NA,neutral,1,483
22,male,meditate,3,65,cherry,cherry,cong,1,519
22,male,meditate,3,66,burger,burger,cong,1,696
22,male,meditate,3,67,orange,NA,neutral,1,395
22,male,meditate,3,68,church,NA,neutral,1,480
22,male,meditate,3,69,plate,NA,neutral,1,591
22,male,meditate,3,70,cat,cat,cong,1,722
22,male,meditate,3,71,bus,bus,cong,1,481
22,male,meditate,3,72,fork,NA,neutral,1,466
22,male,meditate,3,73,orange,orange,cong,1,478
22,male,meditate,3,74,cup,bus,incong,1,456
22,male,meditate,3,75,burger,dog,incong,1,387
22,male,meditate,3,76,stapler,NA,neutral,1,360
22,male,meditate,3,77,hammer,NA,neutral,1,429
22,male,meditate,3,78,apple,apple,cong,0,479
22,male,meditate,3,79,fork,fork,cong,1,505
22,male,meditate,3,80,moon,spoon,incong,1,502
22,male,meditate,3,81,cherry,hat,incong,1,431
22,male,meditate,3,82,scissors,NA,neutral,1,399
22,male,meditate,3,83,moon,NA,neutral,1,514
22,male,meditate,3,84,cup,NA,neutral,1,591
22,male,meditate,3,85,horse,NA,neutral,1,601
22,male,meditate,3,86,cake,NA,neutral,1,408
22,male,meditate,3,87,scissors,church,incong,1,589
22,male,meditate,3,88,carrot,NA,neutral,0,425
22,male,meditate,3,89,hat,NA,neutral,1,583
22,male,meditate,3,90,scissors,scissors,cong,1,435
23,male,meditate,1,1,ball,NA,neutral,1,448
23,male,meditate,1,2,cup,NA,neutral,1,443
23,male,meditate,1,3,lemon,NA,neutral,0,411
23,male,meditate,1,4,orange,NA,neutral,1,426
23,male,meditate,1,5,shoe,shoe,cong,0,496
23,male,meditate,1,6,boat,shoe,incong,1,376
23,male,meditate,1,7,cherry,cherry,cong,1,479
23,male,meditate,1,8,spoon,NA,neutral,1,469
23,male,meditate,1,9,car,car,cong,1,497
23,male,meditate,1,10,moon,moon,cong,0,512
23,male,meditate,1,11,fork,star,incong,1,342
23,male,meditate,1,12,star,drill,incong,1,390
23,male,meditate,1,13,apple,NA,neutral,1,422
23,male,meditate,1,14,horse,horse,cong,1,481
23,male,meditate,1,15,ball,plate,incong,1,359
23,male,meditate,1,16,stapler,car,incong,1,376
23,male,meditate,1,17,drill,drill,cong,1,529
23,male,meditate,1,18,cake,cake,cong,1,501
23,male,meditate,1,19,cat,NA,neutral,1,449
23,male,meditate,1,20,fork,NA,neutral,1,423
23,male,meditate,1,21,lemon,horse,incong,1,352
23,male,meditate,1,22,church,church,cong,1,488
23,male,meditate,1,23,pizza,pizza,cong,1,513
23,male,meditate,1,24,church,hammer,incong,1,582
23,male,meditate,1,25,boat,NA,neutral,1,472
23,male,meditate,1,26,stapler,NA,neutral,1,545
23,male,meditate,1,27,hat,hat,cong,1,499
23,male,meditate,1,28,tree,tree,cong,1,508
23,male,meditate,1,29,car,NA,neutral,1,459
23,male,meditate,1,30,cup,cup,cong,1,624
23,male,meditate,2,31,cherry,stapler,incong,1,590
23,male,meditate,2,32,cat,cat,cong,1,560
23,male,meditate,2,33,cherry,NA,neutral,1,493
23,male,meditate,2,34,burger,burger,cong,1,437
23,male,meditate,2,35,orange,orange,cong,1,450
23,male,meditate,2,36,pizza,bus,incong,1,430
23,male,meditate,2,37,hat,ball,incong,1,280
23,male,meditate,2,38,spoon,orange,incong,1,333
23,male,meditate,2,39,cat,spoon,incong,1,357
23,male,meditate,2,40,dog,NA,neutral,1,458
23,male,meditate,2,41,shoe,NA,neutral,0,506
23,male,meditate,2,42,drill,cherry,incong,1,299
23,male,meditate,2,43,carrot,NA,neutral,1,430
23,male,meditate,2,44,bus,NA,neutral,1,481
23,male,meditate,2,45,carrot,carrot,cong,1,524
23,male,meditate,2,46,plate,NA,neutral,1,505
23,male,meditate,2,47,lemon,lemon,cong,1,580
23,male,meditate,2,48,carrot,pizza,incong,0,322
23,male,meditate,2,49,scissors,scissors,cong,1,512
23,male,meditate,2,50,spoon,spoon,cong,1,451
23,male,meditate,2,51,cup,anchor,incong,1,350
23,male,meditate,2,52,apple,apple,cong,1,425
23,male,meditate,2,53,apple,carrot,incong,1,370
23,male,meditate,2,54,cake,church,incong,1,308
23,male,meditate,2,55,plate,plate,cong,1,526
23,male,meditate,2,56,dog,cup,incong,1,490
23,male,meditate,2,57,bus,bus,cong,1,505
23,male,meditate,2,58,stapler,stapler,cong,0,485
23,male,meditate,2,59,cake,NA,neutral,1,529
23,male,meditate,2,60,burger,NA,neutral,1,392
23,male,meditate,3,61,pizza,NA,neutral,1,496
23,male,meditate,3,62,anchor,anchor,cong,1,586
23,male,meditate,3,63,moon,fork,incong,1,388
23,male,meditate,3,64,burger,lemon,incong,1,362
23,male,meditate,3,65,drill,NA,neutral,1,507
23,male,meditate,3,66,star,NA,neutral,1,522
23,male,meditate,3,67,anchor,tree,incong,1,576
23,male,meditate,3,68,tree,cat,incong,1,285
23,male,meditate,3,69,hat,NA,neutral,1,521
23,male,meditate,3,70,bus,apple,incong,0,389
23,male,meditate,3,71,star,star,cong,1,521
23,male,meditate,3,72,scissors,dog,incong,1,291
23,male,meditate,3,73,tree,NA,neutral,1,591
23,male,meditate,3,74,church,NA,neutral,1,608
23,male,meditate,3,75,anchor,NA,neutral,1,450
23,male,meditate,3,76,dog,dog,cong,1,519
23,male,meditate,3,77,horse,NA,neutral,1,463
23,male,meditate,3,78,boat,boat,cong,1,532
23,male,meditate,3,79,ball,ball,cong,1,507
23,male,meditate,3,80,fork,fork,cong,1,417
23,male,meditate,3,81,plate,hat,incong,1,425
23,male,meditate,3,82,moon,NA,neutral,1,607
23,male,meditate,3,83,scissors,NA,neutral,1,367
23,male,meditate,3,84,shoe,moon,incong,1,543
23,male,meditate,3,85,car,burger,incong,1,365
23,male,meditate,3,86,horse,cake,incong,1,328
23,male,meditate,3,87,hammer,boat,incong,1,290
23,male,meditate,3,88,hammer,hammer,cong,1,622
23,male,meditate,3,89,hammer,NA,neutral,1,641
23,male,meditate,3,90,orange,scissors,incong,1,381
24,male,meditate,1,1,spoon,drill,incong,1,551
24,male,meditate,1,2,plate,ball,incong,1,545
24,male,meditate,1,3,fork,NA,neutral,1,444
24,male,meditate,1,4,hat,NA,neutral,1,479
24,male,meditate,1,5,drill,orange,incong,1,402
24,male,meditate,1,6,fork,fork,cong,1,526
24,male,meditate,1,7,apple,hammer,incong,1,433
24,male,meditate,1,8,hat,hat,cong,1,510
24,male,meditate,1,9,boat,apple,incong,1,403
24,male,meditate,1,10,tree,plate,incong,1,377
24,male,meditate,1,11,stapler,stapler,cong,1,484
24,male,meditate,1,12,horse,NA,neutral,0,455
24,male,meditate,1,13,plate,plate,cong,1,519
24,male,meditate,1,14,pizza,NA,neutral,1,499
24,male,meditate,1,15,bus,bus,cong,1,509
24,male,meditate,1,16,moon,spoon,incong,1,409
24,male,meditate,1,17,car,NA,neutral,1,547
24,male,meditate,1,18,orange,cake,incong,1,378
24,male,meditate,1,19,shoe,dog,incong,1,460
24,male,meditate,1,20,cat,bus,incong,1,428
24,male,meditate,1,21,shoe,shoe,cong,1,537
24,male,meditate,1,22,carrot,stapler,incong,1,433
24,male,meditate,1,23,carrot,carrot,cong,1,493
24,male,meditate,1,24,pizza,pizza,cong,1,515
24,male,meditate,1,25,orange,NA,neutral,1,513
24,male,meditate,1,26,apple,apple,cong,1,583
24,male,meditate,1,27,tree,NA,neutral,1,544
24,male,meditate,1,28,boat,boat,cong,1,543
24,male,meditate,1,29,cherry,NA,neutral,1,570
24,male,meditate,1,30,burger,church,incong,1,432
24,male,meditate,2,31,burger,NA,neutral,1,312
24,male,meditate,2,32,apple,NA,neutral,1,337
24,male,meditate,2,33,car,car,cong,1,438
24,male,meditate,2,34,hammer,boat,incong,1,311
24,male,meditate,2,35,ball,ball,cong,1,387
24,male,meditate,2,36,drill,drill,cong,1,471
24,male,meditate,2,37,cup,NA,neutral,1,353
24,male,meditate,2,38,stapler,lemon,incong,1,461
24,male,meditate,2,39,lemon,NA,neutral,1,470
24,male,meditate,2,40,orange,orange,cong,1,434
24,male,meditate,2,41,star,star,cong,1,583
24,male,meditate,2,42,church,NA,neutral,1,451
24,male,meditate,2,43,scissors,horse,incong,1,477
24,male,meditate,2,44,dog,car,incong,1,425
24,male,meditate,2,45,scissors,NA,neutral,1,465
24,male,meditate,2,46,dog,NA,neutral,1,328
24,male,meditate,2,47,pizza,star,incong,1,454
24,male,meditate,2,48,ball,shoe,incong,1,401
24,male,meditate,2,49,boat,NA,neutral,1,432
24,male,meditate,2,50,cake,fork,incong,1,376
24,male,meditate,2,51,burger,burger,cong,1,440
24,male,meditate,2,52,lemon,carrot,incong,1,287
24,male,meditate,2,53,church,church,cong,1,487
24,male,meditate,2,54,cup,cup,cong,1,417
24,male,meditate,2,55,horse,horse,cong,1,432
24,male,meditate,2,56,scissors,scissors,cong,1,671
24,male,meditate,2,57,dog,dog,cong,1,369
24,male,meditate,2,58,anchor,NA,neutral,1,387
24,male,meditate,2,59,hammer,hammer,cong,1,580
24,male,meditate,2,60,cup,cat,incong,1,432
24,male,meditate,3,61,hammer,NA,neutral,1,584
24,male,meditate,3,62,cake,NA,neutral,1,372
24,male,meditate,3,63,spoon,NA,neutral,1,369
24,male,meditate,3,64,moon,moon,cong,1,377
24,male,meditate,3,65,ball,NA,neutral,1,476
24,male,meditate,3,66,carrot,NA,neutral,1,359
24,male,meditate,3,67,fork,burger,incong,1,268
24,male,meditate,3,68,anchor,anchor,cong,1,355
24,male,meditate,3,69,cherry,cherry,cong,1,426
24,male,meditate,3,70,stapler,NA,neutral,1,448
24,male,meditate,3,71,hat,cherry,incong,1,269
24,male,meditate,3,72,church,anchor,incong,1,347
24,male,meditate,3,73,car,pizza,incong,1,382
24,male,meditate,3,74,anchor,tree,incong,1,475
24,male,meditate,3,75,drill,NA,neutral,1,356
24,male,meditate,3,76,tree,tree,cong,1,677
24,male,meditate,3,77,bus,scissors,incong,1,346
24,male,meditate,3,78,shoe,NA,neutral,1,357
24,male,meditate,3,79,star,NA,neutral,1,385
24,male,meditate,3,80,spoon,spoon,cong,1,479
24,male,meditate,3,81,cake,cake,cong,1,467
24,male,meditate,3,82,horse,cup,incong,1,274
24,male,meditate,3,83,star,moon,incong,1,324
24,male,meditate,3,84,cat,cat,cong,1,476
24,male,meditate,3,85,plate,NA,neutral,1,453
24,male,meditate,3,86,cat,NA,neutral,1,362
24,male,meditate,3,87,moon,NA,neutral,1,325
24,male,meditate,3,88,bus,NA,neutral,1,440
24,male,meditate,3,89,lemon,lemon,cong,1,624
24,male,meditate,3,90,cherry,hat,incong,1,305
25,male,meditate,1,1,cherry,church,incong,1,397
25,male,meditate,1,2,spoon,spoon,cong,1,469
25,male,meditate,1,3,cat,NA,neutral,1,584
25,male,meditate,1,4,pizza,pizza,cong,1,588
25,male,meditate,1,5,carrot,NA,neutral,1,437
25,male,meditate,1,6,lemon,lemon,cong,1,485
25,male,meditate,1,7,scissors,NA,neutral,1,483
25,male,meditate,1,8,apple,NA,neutral,1,502
25,male,meditate,1,9,fork,NA,neutral,1,508
25,male,meditate,1,10,drill,stapler,incong,1,401
25,male,meditate,1,11,hammer,NA,neutral,1,436
25,male,meditate,1,12,bus,NA,neutral,1,453
25,male,meditate,1,13,cake,hammer,incong,1,508
25,male,meditate,1,14,car,NA,neutral,0,509
25,male,meditate,1,15,stapler,stapler,cong,1,497
25,male,meditate,1,16,apple,carrot,incong,0,462
25,male,meditate,1,17,fork,fork,cong,1,525
25,male,meditate,1,18,cat,cat,cong,1,518
25,male,meditate,1,19,dog,dog,cong,1,529
25,male,meditate,1,20,anchor,drill,incong,1,455
25,male,meditate,1,21,scissors,anchor,incong,1,385
25,male,meditate,1,22,shoe,boat,incong,1,395
25,male,meditate,1,23,church,apple,incong,1,395
25,male,meditate,1,24,cup,cup,cong,1,464
25,male,meditate,1,25,lemon,NA,neutral,1,448
25,male,meditate,1,26,lemon,fork,incong,1,470
25,male,meditate,1,27,plate,NA,neutral,1,517
25,male,meditate,1,28,church,church,cong,1,464
25,male,meditate,1,29,church,NA,neutral,1,462
25,male,meditate,1,30,hammer,hammer,cong,1,520
25,male,meditate,2,31,hat,cherry,incong,1,519
25,male,meditate,2,32,cake,cake,cong,1,432
25,male,meditate,2,33,scissors,scissors,cong,1,516
25,male,meditate,2,34,anchor,anchor,cong,1,532
25,male,meditate,2,35,moon,moon,cong,1,591
25,male,meditate,2,36,pizza,cat,incong,1,402
25,male,meditate,2,37,shoe,NA,neutral,0,403
25,male,meditate,2,38,bus,star,incong,1,444
25,male,meditate,2,39,stapler,NA,neutral,1,386
25,male,meditate,2,40,stapler,shoe,incong,1,342
25,male,meditate,2,41,dog,spoon,incong,0,466
25,male,meditate,2,42,moon,hat,incong,1,458
25,male,meditate,2,43,cup,burger,incong,1,463
25,male,meditate,2,44,hat,hat,cong,1,482
25,male,meditate,2,45,fork,plate,incong,1,495
25,male,meditate,2,46,ball,NA,neutral,1,480
25,male,meditate,2,47,dog,NA,neutral,1,392
25,male,meditate,2,48,carrot,carrot,cong,1,466
25,male,meditate,2,49,carrot,lemon,incong,1,435
25,male,meditate,2,50,horse,NA,neutral,1,534
25,male,meditate,2,51,cherry,cherry,cong,1,442
25,male,meditate,2,52,hat,NA,neutral,1,442
25,male,meditate,2,53,boat,NA,neutral,1,395
25,male,meditate,2,54,drill,NA,neutral,0,481
25,male,meditate,2,55,car,cup,incong,0,426
25,male,meditate,2,56,plate,dog,incong,0,437
25,male,meditate,2,57,tree,tree,cong,1,496
25,male,meditate,2,58,cherry,NA,neutral,1,528
25,male,meditate,2,59,star,star,cong,1,474
25,male,meditate,2,60,cake,NA,neutral,1,557
25,male,meditate,3,61,tree,tree,cong,1,539
25,male,meditate,3,62,car,car,cong,1,447
25,male,meditate,3,63,apple,apple,cong,1,469
25,male,meditate,3,64,orange,NA,neutral,1,533
25,male,meditate,3,65,cat,ball,incong,1,627
25,male,meditate,3,66,horse,scissors,incong,1,398
25,male,meditate,3,67,burger,pizza,incong,1,479
25,male,meditate,3,68,boat,boat,cong,1,446
25,male,meditate,3,69,spoon,NA,neutral,1,439
25,male,meditate,3,70,star,orange,incong,1,519
25,male,meditate,3,71,burger,burger,cong,1,578
25,male,meditate,3,72,ball,bus,incong,1,433
25,male,meditate,3,73,plate,plate,cong,1,594
